*****  MODTRAN3 Version 1.3  12/1/95  *****
0 CARD 1  *****T   1    3    1    0    0    0    0    0    0    0    0    0   -1   0.000  -1.00
 co2mx co2rat ch4rat h2orat t_o3rat s_o3rat scalefreon    0.00000000       0.00000000       0.00000000       100.000000       0.00000000       0.00000000       0.00000000    
0 CARD 2  *****    0    0    0    0    0    0     0.000     0.000     0.000     0.000     0.000
 ***ERROR RELHUM      0.7553E+04  AT ALT         0.000
 ***ERROR RELHUM      0.7277E+04  AT ALT         1.000
 ***ERROR RELHUM      0.7451E+04  AT ALT         2.000
 ***ERROR RELHUM      0.4825E+04  AT ALT         3.000
 ***ERROR RELHUM      0.3491E+04  AT ALT         4.000
 ***ERROR RELHUM      0.3771E+04  AT ALT         5.000
 ***ERROR RELHUM      0.3479E+04  AT ALT         6.000
 ***ERROR RELHUM      0.3198E+04  AT ALT         7.000
 ***ERROR RELHUM      0.2947E+04  AT ALT         8.000
 ***ERROR RELHUM      0.2535E+04  AT ALT         9.000
 ***ERROR RELHUM      0.1951E+04  AT ALT        10.000
 ***ERROR RELHUM      0.1315E+04  AT ALT        11.000
 ***ERROR RELHUM      0.9253E+03  AT ALT        12.000
 ***ERROR RELHUM      0.5881E+03  AT ALT        13.000
 ***ERROR RELHUM      0.7410E+03  AT ALT        14.000
 ***ERROR RELHUM      0.9923E+03  AT ALT        15.000
 ***ERROR RELHUM      0.1677E+04  AT ALT        16.000
 ***ERROR RELHUM      0.1924E+04  AT ALT        17.000
 ***ERROR RELHUM      0.8321E+03  AT ALT        18.000
 ***ERROR RELHUM      0.3752E+03  AT ALT        19.000
 ***ERROR RELHUM      0.1818E+03  AT ALT        20.000
0 CARD 3  *****    70.000     0.000   180.000     0.000     0.000     0.000    0
0 CARD 4  *****         2      2200         2         3
0 PROGRAM WILL COMPUTE RADIANCE                
0 ATMOSPHERIC MODEL
          TEMPERATURE =    1     TROPICAL MODEL      
          WATER VAPOR =    1     TROPICAL MODEL      
          OZONE       =    1     TROPICAL MODEL      
                      M4 =     1 M5 =     1 M6 =     1 MDEF =     1
0 SLANT PATH TO SPACE
          H1    =     70.000 KM
          HMIN  =      0.000 KM
          ANGLE =    180.000 DEG
0 FREQUENCY RANGE
             IV1 =         2 CM-1  (   5000.00 MICROMETERS)
             IV2 =      2200 CM-1  (      4.55 MICROMETERS)
             IDV =         2 CM-1
           IFWHM =         3 CM-1
1
  ATMOSPHERIC PROFILES

   I     Z       P       T        N2       CNTMSLF MOL SCAT     N-1     O3 (UV)  O2 (UV)
        (KM)    (MB)    (K)            (MOL/CM2 KM)   (-)       (-)  (ATM CM/KM) (ATM CM/KM)

   1     0.00 1013.000  299.7  7.622E-01 1.623E+25 9.112E-01 1.494E-04 0.000E+00 3.342E+04
   2     1.00  904.000  293.7  6.321E-01 7.602E+24 8.298E-01 1.631E-04 0.000E+00 2.927E+04
   3     2.00  805.000  287.7  5.223E-01 3.892E+24 7.543E-01 1.640E-04 0.000E+00 2.562E+04
   4     3.00  715.000  283.7  4.238E-01 9.924E+23 6.794E-01 1.690E-04 0.000E+00 2.219E+04
   5     4.00  633.000  277.0  3.484E-01 2.176E+23 6.160E-01 1.651E-04 0.000E+00 1.945E+04
   6     5.00  559.000  270.3  2.853E-01 1.012E+23 5.575E-01 1.523E-04 0.000E+00 1.703E+04
   7     6.00  492.000  263.6  2.324E-01 3.249E+22 5.032E-01 1.403E-04 0.000E+00 1.490E+04
   8     7.00  432.000  257.0  1.885E-01 9.917E+21 4.531E-01 1.279E-04 0.000E+00 1.302E+04
   9     8.00  378.000  250.3  1.522E-01 2.810E+21 4.071E-01 1.158E-04 0.000E+00 1.138E+04
  10     9.00  329.000  243.6  1.217E-01 6.471E+20 3.641E-01 1.041E-04 0.000E+00 9.902E+03
  11    10.00  286.000  237.0  9.716E-02 1.125E+20 3.253E-01 9.333E-05 0.000E+00 8.629E+03
  12    11.00  247.000  230.1  7.688E-02 1.299E+19 2.894E-01 8.315E-05 0.000E+00 7.496E+03
  13    12.00  213.000  223.6  6.054E-02 1.618E+18 2.568E-01 7.383E-05 0.000E+00 6.507E+03
  14    13.00  182.000  217.0  4.693E-02 1.456E+17 2.261E-01 6.502E-05 0.000E+00 5.608E+03
  15    14.00  156.000  210.3  3.671E-02 4.497E+16 2.000E-01 5.751E-05 0.000E+00 4.870E+03
  16    15.00  132.000  203.7  2.802E-02 1.419E+16 1.747E-01 5.024E-05 0.000E+00 4.178E+03
  17    16.00  111.000  197.0  2.118E-02 6.036E+15 1.519E-01 4.368E-05 0.000E+00 3.572E+03
  18    17.00   93.700  194.8  1.544E-02 4.110E+15 1.297E-01 3.729E-05 0.000E+00 3.000E+03
  19    18.00   78.900  198.8  1.051E-02 2.516E+15 1.070E-01 3.077E-05 0.000E+00 2.433E+03
  20    19.00   66.600  202.7  7.202E-03 1.542E+15 8.857E-02 2.547E-05 0.000E+00 1.986E+03
  21    20.00   56.500  206.7  4.985E-03 1.067E+15 7.369E-02 2.119E-05 0.000E+00 1.633E+03
  22    21.00   48.000  210.7  3.463E-03 7.699E+14 6.141E-02 1.766E-05 0.000E+00 1.348E+03
  23    22.00   40.900  214.6  2.423E-03 6.016E+14 5.138E-02 1.478E-05 0.000E+00 1.119E+03
  24    23.00   35.000  217.0  1.736E-03 4.622E+14 4.348E-02 1.250E-05 0.000E+00 9.409E+02
  25    24.00   30.000  219.2  1.250E-03 4.052E+14 3.689E-02 1.061E-05 0.000E+00 7.942E+02
  26    25.00   25.700  221.4  8.990E-04 3.007E+14 3.129E-02 8.999E-06 0.000E+00 6.705E+02
  27    30.00   12.200  232.3  1.840E-04 9.323E+13 1.416E-02 4.072E-06 0.000E+00 2.992E+02
  28    35.00    6.000  243.1  4.064E-05 2.723E+13 6.654E-03 1.913E-06 0.000E+00 1.397E+02
  29    40.00    3.050  254.0  9.620E-06 8.236E+12 3.237E-03 9.309E-07 0.000E+00 6.779E+01
  30    45.00    1.590  264.8  2.405E-06 2.475E+12 1.619E-03 4.655E-07 0.000E+00 3.385E+01
  31    50.00    0.854  270.2  6.665E-07 7.597E+11 8.520E-04 2.450E-07 0.000E+00 1.781E+01
  32    70.00    0.058  218.9  4.684E-09 3.003E+09 7.143E-05 2.054E-08 0.000E+00 1.492E+00
  33   100.00    0.000  190.7  1.532E-13 7.763E+02 4.085E-07 1.175E-10 0.000E+00 6.532E-03
1
  ATMOSPHERIC PROFILES

   I     Z       P       T      CNTMFRN     HNO3    AEROSOL 1 AEROSOL 2 AEROSOL 3 AEROSOL 4 AER1*RH   CIRRUS         RH
        (KM)    (MB)    (K)   MOL/CM2 KM ATM CM/KM   (-)       (-)       (-)       (-)       (-)       (-)      (PERCNT)

   1     0.00 1013.000  299.7 -9.964E+24 0.000E+00 0.000E+00 0.000E+00 0.000E+00 0.000E+00 0.000E+00 0.000E+00 1.000E+02
   2     1.00  904.000  293.7 -3.699E+24 0.000E+00 0.000E+00 0.000E+00 0.000E+00 0.000E+00 0.000E+00 0.000E+00 1.000E+02
   3     2.00  805.000  287.7 -1.353E+24 0.000E+00 0.000E+00 0.000E+00 0.000E+00 0.000E+00 0.000E+00 0.000E+00 1.000E+02
   4     3.00  715.000  283.7  1.625E+23 0.000E+00 0.000E+00 0.000E+00 0.000E+00 0.000E+00 0.000E+00 0.000E+00 1.000E+02
   5     4.00  633.000  277.0  2.727E+23 0.000E+00 0.000E+00 0.000E+00 0.000E+00 0.000E+00 0.000E+00 0.000E+00 1.000E+02
   6     5.00  559.000  270.3  2.014E+23 0.000E+00 0.000E+00 0.000E+00 0.000E+00 0.000E+00 0.000E+00 0.000E+00 1.000E+02
   7     6.00  492.000  263.6  1.223E+23 0.000E+00 0.000E+00 0.000E+00 0.000E+00 0.000E+00 0.000E+00 0.000E+00 1.000E+02
   8     7.00  432.000  257.0  6.708E+22 0.000E+00 0.000E+00 0.000E+00 0.000E+00 0.000E+00 0.000E+00 0.000E+00 1.000E+02
   9     8.00  378.000  250.3  3.401E+22 0.000E+00 0.000E+00 0.000E+00 0.000E+00 0.000E+00 0.000E+00 0.000E+00 1.000E+02
  10     9.00  329.000  243.6  1.516E+22 0.000E+00 0.000E+00 0.000E+00 0.000E+00 0.000E+00 0.000E+00 0.000E+00 1.000E+02
  11    10.00  286.000  237.0  5.774E+21 0.000E+00 0.000E+00 0.000E+00 0.000E+00 0.000E+00 0.000E+00 0.000E+00 1.000E+02
  12    11.00  247.000  230.1  1.767E+21 0.000E+00 0.000E+00 0.000E+00 0.000E+00 0.000E+00 0.000E+00 0.000E+00 1.000E+02
  13    12.00  213.000  223.6  5.557E+20 0.000E+00 0.000E+00 0.000E+00 0.000E+00 0.000E+00 0.000E+00 0.000E+00 1.000E+02
  14    13.00  182.000  217.0  1.471E+20 0.000E+00 0.000E+00 0.000E+00 0.000E+00 0.000E+00 0.000E+00 0.000E+00 1.000E+02
  15    14.00  156.000  210.3  7.232E+19 0.000E+00 0.000E+00 0.000E+00 0.000E+00 0.000E+00 0.000E+00 0.000E+00 1.000E+02
  16    15.00  132.000  203.7  3.550E+19 0.000E+00 0.000E+00 0.000E+00 0.000E+00 0.000E+00 0.000E+00 0.000E+00 1.000E+02
  17    16.00  111.000  197.0  2.013E+19 0.000E+00 0.000E+00 0.000E+00 0.000E+00 0.000E+00 0.000E+00 0.000E+00 1.000E+02
  18    17.00   93.700  194.8  1.418E+19 0.000E+00 0.000E+00 0.000E+00 0.000E+00 0.000E+00 0.000E+00 0.000E+00 1.000E+02
  19    18.00   78.900  198.8  9.155E+18 0.000E+00 0.000E+00 0.000E+00 0.000E+00 0.000E+00 0.000E+00 0.000E+00 1.000E+02
  20    19.00   66.600  202.7  5.933E+18 0.000E+00 0.000E+00 0.000E+00 0.000E+00 0.000E+00 0.000E+00 0.000E+00 1.000E+02
  21    20.00   56.500  206.7  4.106E+18 0.000E+00 0.000E+00 0.000E+00 0.000E+00 0.000E+00 0.000E+00 0.000E+00 1.000E+02
  22    21.00   48.000  210.7  2.907E+18 0.000E+00 0.000E+00 0.000E+00 0.000E+00 0.000E+00 0.000E+00 0.000E+00 9.217E+01
  23    22.00   40.900  214.6  2.150E+18 0.000E+00 0.000E+00 0.000E+00 0.000E+00 0.000E+00 0.000E+00 0.000E+00 5.033E+01
  24    23.00   35.000  217.0  1.595E+18 0.000E+00 0.000E+00 0.000E+00 0.000E+00 0.000E+00 0.000E+00 0.000E+00 3.313E+01
  25    24.00   30.000  219.2  1.267E+18 0.000E+00 0.000E+00 0.000E+00 0.000E+00 0.000E+00 0.000E+00 0.000E+00 2.401E+01
  26    25.00   25.700  221.4  9.255E+17 0.000E+00 0.000E+00 0.000E+00 0.000E+00 0.000E+00 0.000E+00 0.000E+00 1.611E+01
  27    30.00   12.200  232.3  2.332E+17 0.000E+00 0.000E+00 0.000E+00 0.000E+00 0.000E+00 0.000E+00 0.000E+00 2.817E+00
  28    35.00    6.000  243.1  5.922E+16 0.000E+00 0.000E+00 0.000E+00 0.000E+00 0.000E+00 0.000E+00 0.000E+00 5.440E-01
  29    40.00    3.050  254.0  1.584E+16 0.000E+00 0.000E+00 0.000E+00 0.000E+00 0.000E+00 0.000E+00 0.000E+00 1.173E-01
  30    45.00    1.590  264.8  4.342E+15 0.000E+00 0.000E+00 0.000E+00 0.000E+00 0.000E+00 0.000E+00 0.000E+00 2.777E-02
  31    50.00    0.854  270.2  1.266E+15 0.000E+00 0.000E+00 0.000E+00 0.000E+00 0.000E+00 0.000E+00 0.000E+00 1.041E-02
  32    70.00    0.058  218.9  6.676E+12 0.000E+00 0.000E+00 0.000E+00 0.000E+00 0.000E+00 0.000E+00 0.000E+00 6.767E-02
  33   100.00    0.000  190.7  1.942E+07 0.000E+00 0.000E+00 0.000E+00 0.000E+00 0.000E+00 0.000E+00 0.000E+00 1.583E-03
1
  ATMOSPHERIC PROFILES

   I      Z       P       T      H2O      O3       CO2      CO       CH4      N2O      O2       NH3      NO       NO2      SO2
         (KM)    (MB)    (K)  (                                    MBAR                                                       )
   1     0.00 1013.000  299.7  1.90E+03 0.00E+00 0.00E+00 0.00E+00 0.00E+00 0.00E+00 2.09E+05 0.00E+00 0.00E+00 0.00E+00 0.00E+00
   2     1.00  904.000  293.7  1.30E+03 0.00E+00 0.00E+00 0.00E+00 0.00E+00 0.00E+00 2.09E+05 0.00E+00 0.00E+00 0.00E+00 0.00E+00
   3     2.00  805.000  287.7  9.29E+02 0.00E+00 0.00E+00 0.00E+00 0.00E+00 0.00E+00 2.09E+05 0.00E+00 0.00E+00 0.00E+00 0.00E+00
   4     3.00  715.000  283.7  4.69E+02 0.00E+00 0.00E+00 0.00E+00 0.00E+00 0.00E+00 2.09E+05 0.00E+00 0.00E+00 0.00E+00 0.00E+00
   5     4.00  633.000  277.0  2.20E+02 0.00E+00 0.00E+00 0.00E+00 0.00E+00 0.00E+00 2.09E+05 0.00E+00 0.00E+00 0.00E+00 0.00E+00
   6     5.00  559.000  270.3  1.50E+02 0.00E+00 0.00E+00 0.00E+00 0.00E+00 0.00E+00 2.09E+05 0.00E+00 0.00E+00 0.00E+00 0.00E+00
   7     6.00  492.000  263.6  8.49E+01 0.00E+00 0.00E+00 0.00E+00 0.00E+00 0.00E+00 2.09E+05 0.00E+00 0.00E+00 0.00E+00 0.00E+00
   8     7.00  432.000  257.0  4.69E+01 0.00E+00 0.00E+00 0.00E+00 0.00E+00 0.00E+00 2.09E+05 0.00E+00 0.00E+00 0.00E+00 0.00E+00
   9     8.00  378.000  250.3  2.50E+01 0.00E+00 0.00E+00 0.00E+00 0.00E+00 0.00E+00 2.09E+05 0.00E+00 0.00E+00 0.00E+00 0.00E+00
  10     9.00  329.000  243.6  1.20E+01 0.00E+00 0.00E+00 0.00E+00 0.00E+00 0.00E+00 2.09E+05 0.00E+00 0.00E+00 0.00E+00 0.00E+00
  11    10.00  286.000  237.0  5.00E+00 0.00E+00 0.00E+00 0.00E+00 0.00E+00 0.00E+00 2.09E+05 0.00E+00 0.00E+00 0.00E+00 0.00E+00
  12    11.00  247.000  230.1  1.70E+00 0.00E+00 0.00E+00 0.00E+00 0.00E+00 0.00E+00 2.09E+05 0.00E+00 0.00E+00 0.00E+00 0.00E+00
  13    12.00  213.000  223.6  5.99E-01 0.00E+00 0.00E+00 0.00E+00 0.00E+00 0.00E+00 2.09E+05 0.00E+00 0.00E+00 0.00E+00 0.00E+00
  14    13.00  182.000  217.0  1.80E-01 0.00E+00 0.00E+00 0.00E+00 0.00E+00 0.00E+00 2.09E+05 0.00E+00 0.00E+00 0.00E+00 0.00E+00
  15    14.00  156.000  210.3  9.99E-02 0.00E+00 0.00E+00 0.00E+00 0.00E+00 0.00E+00 2.09E+05 0.00E+00 0.00E+00 0.00E+00 0.00E+00
  16    15.00  132.000  203.7  5.61E-02 0.00E+00 0.00E+00 0.00E+00 0.00E+00 0.00E+00 2.09E+05 0.00E+00 0.00E+00 0.00E+00 0.00E+00
  17    16.00  111.000  197.0  3.66E-02 0.00E+00 0.00E+00 0.00E+00 0.00E+00 0.00E+00 2.09E+05 0.00E+00 0.00E+00 0.00E+00 0.00E+00
  18    17.00   93.700  194.8  3.02E-02 0.00E+00 0.00E+00 0.00E+00 0.00E+00 0.00E+00 2.09E+05 0.00E+00 0.00E+00 0.00E+00 0.00E+00
  19    18.00   78.900  198.8  2.36E-02 0.00E+00 0.00E+00 0.00E+00 0.00E+00 0.00E+00 2.09E+05 0.00E+00 0.00E+00 0.00E+00 0.00E+00
  20    19.00   66.600  202.7  1.85E-02 0.00E+00 0.00E+00 0.00E+00 0.00E+00 0.00E+00 2.09E+05 0.00E+00 0.00E+00 0.00E+00 0.00E+00
  21    20.00   56.500  206.7  1.54E-02 0.00E+00 0.00E+00 0.00E+00 0.00E+00 0.00E+00 2.09E+05 0.00E+00 0.00E+00 0.00E+00 0.00E+00
  22    21.00   48.000  210.7  1.31E-02 0.00E+00 0.00E+00 0.00E+00 0.00E+00 0.00E+00 2.09E+05 0.00E+00 0.00E+00 0.00E+00 0.00E+00
  23    22.00   40.900  214.6  1.16E-02 0.00E+00 0.00E+00 0.00E+00 0.00E+00 0.00E+00 2.09E+05 0.00E+00 0.00E+00 0.00E+00 0.00E+00
  24    23.00   35.000  217.0  1.01E-02 0.00E+00 0.00E+00 0.00E+00 0.00E+00 0.00E+00 2.09E+05 0.00E+00 0.00E+00 0.00E+00 0.00E+00
  25    24.00   30.000  219.2  9.48E-03 0.00E+00 0.00E+00 0.00E+00 0.00E+00 0.00E+00 2.09E+05 0.00E+00 0.00E+00 0.00E+00 0.00E+00
  26    25.00   25.700  221.4  8.17E-03 0.00E+00 0.00E+00 0.00E+00 0.00E+00 0.00E+00 2.09E+05 0.00E+00 0.00E+00 0.00E+00 0.00E+00
  27    30.00   12.200  232.3  4.55E-03 0.00E+00 0.00E+00 0.00E+00 0.00E+00 0.00E+00 2.09E+05 0.00E+00 0.00E+00 0.00E+00 0.00E+00
  28    35.00    6.000  243.1  2.46E-03 0.00E+00 0.00E+00 0.00E+00 0.00E+00 0.00E+00 2.09E+05 0.00E+00 0.00E+00 0.00E+00 0.00E+00
  29    40.00    3.050  254.0  1.35E-03 0.00E+00 0.00E+00 0.00E+00 0.00E+00 0.00E+00 2.09E+05 0.00E+00 0.00E+00 0.00E+00 0.00E+00
  30    45.00    1.590  264.8  7.41E-04 0.00E+00 0.00E+00 0.00E+00 0.00E+00 0.00E+00 2.09E+05 0.00E+00 0.00E+00 0.00E+00 0.00E+00
  31    50.00    0.854  270.2  4.11E-04 0.00E+00 0.00E+00 0.00E+00 0.00E+00 0.00E+00 2.09E+05 0.00E+00 0.00E+00 0.00E+00 0.00E+00
  32    70.00    0.058  218.9  2.58E-05 0.00E+00 0.00E+00 0.00E+00 0.00E+00 0.00E+00 2.09E+05 0.00E+00 0.00E+00 0.00E+00 0.00E+00
  33   100.00    0.000  190.7  1.31E-08 0.00E+00 0.00E+00 0.00E+00 0.00E+00 0.00E+00 1.60E+05 0.00E+00 0.00E+00 0.00E+00 0.00E+00
1
  ATMOSPHERIC PROFILES

   I      Z       P       T     CFC-11   CFC-12   CFC-13   CFC-14   CFC-22   CFC-113  CFC-114  CFC-115  CLONO2    HNO4    CHCL2F 
                                 CCL4     N2O5  
         (KM)    (MB)    (K)  (                                 ATM CM/KM                                                     )
   1     0.00 1013.000  299.7  0.00E+00 0.00E+00 0.00E+00 0.00E+00 0.00E+00 0.00E+00 0.00E+00 0.00E+00 0.00E+00 0.00E+00 0.00E+00
                               0.00E+00 0.00E+00
   2     1.00  904.000  293.7  0.00E+00 0.00E+00 0.00E+00 0.00E+00 0.00E+00 0.00E+00 0.00E+00 0.00E+00 0.00E+00 0.00E+00 0.00E+00
                               0.00E+00 0.00E+00
   3     2.00  805.000  287.7  0.00E+00 0.00E+00 0.00E+00 0.00E+00 0.00E+00 0.00E+00 0.00E+00 0.00E+00 0.00E+00 0.00E+00 0.00E+00
                               0.00E+00 0.00E+00
   4     3.00  715.000  283.7  0.00E+00 0.00E+00 0.00E+00 0.00E+00 0.00E+00 0.00E+00 0.00E+00 0.00E+00 0.00E+00 0.00E+00 0.00E+00
                               0.00E+00 0.00E+00
   5     4.00  633.000  277.0  0.00E+00 0.00E+00 0.00E+00 0.00E+00 0.00E+00 0.00E+00 0.00E+00 0.00E+00 0.00E+00 0.00E+00 0.00E+00
                               0.00E+00 0.00E+00
   6     5.00  559.000  270.3  0.00E+00 0.00E+00 0.00E+00 0.00E+00 0.00E+00 0.00E+00 0.00E+00 0.00E+00 0.00E+00 0.00E+00 0.00E+00
                               0.00E+00 0.00E+00
   7     6.00  492.000  263.6  0.00E+00 0.00E+00 0.00E+00 0.00E+00 0.00E+00 0.00E+00 0.00E+00 0.00E+00 0.00E+00 0.00E+00 0.00E+00
                               0.00E+00 0.00E+00
   8     7.00  432.000  257.0  0.00E+00 0.00E+00 0.00E+00 0.00E+00 0.00E+00 0.00E+00 0.00E+00 0.00E+00 0.00E+00 0.00E+00 0.00E+00
                               0.00E+00 0.00E+00
   9     8.00  378.000  250.3  0.00E+00 0.00E+00 0.00E+00 0.00E+00 0.00E+00 0.00E+00 0.00E+00 0.00E+00 0.00E+00 0.00E+00 0.00E+00
                               0.00E+00 0.00E+00
  10     9.00  329.000  243.6  0.00E+00 0.00E+00 0.00E+00 0.00E+00 0.00E+00 0.00E+00 0.00E+00 0.00E+00 0.00E+00 0.00E+00 0.00E+00
                               0.00E+00 0.00E+00
  11    10.00  286.000  237.0  0.00E+00 0.00E+00 0.00E+00 0.00E+00 0.00E+00 0.00E+00 0.00E+00 0.00E+00 0.00E+00 0.00E+00 0.00E+00
                               0.00E+00 0.00E+00
  12    11.00  247.000  230.1  0.00E+00 0.00E+00 0.00E+00 0.00E+00 0.00E+00 0.00E+00 0.00E+00 0.00E+00 0.00E+00 0.00E+00 0.00E+00
                               0.00E+00 0.00E+00
  13    12.00  213.000  223.6  0.00E+00 0.00E+00 0.00E+00 0.00E+00 0.00E+00 0.00E+00 0.00E+00 0.00E+00 0.00E+00 0.00E+00 0.00E+00
                               0.00E+00 0.00E+00
  14    13.00  182.000  217.0  0.00E+00 0.00E+00 0.00E+00 0.00E+00 0.00E+00 0.00E+00 0.00E+00 0.00E+00 0.00E+00 0.00E+00 0.00E+00
                               0.00E+00 0.00E+00
  15    14.00  156.000  210.3  0.00E+00 0.00E+00 0.00E+00 0.00E+00 0.00E+00 0.00E+00 0.00E+00 0.00E+00 0.00E+00 0.00E+00 0.00E+00
                               0.00E+00 0.00E+00
  16    15.00  132.000  203.7  0.00E+00 0.00E+00 0.00E+00 0.00E+00 0.00E+00 0.00E+00 0.00E+00 0.00E+00 0.00E+00 0.00E+00 0.00E+00
                               0.00E+00 0.00E+00
  17    16.00  111.000  197.0  0.00E+00 0.00E+00 0.00E+00 0.00E+00 0.00E+00 0.00E+00 0.00E+00 0.00E+00 0.00E+00 0.00E+00 0.00E+00
                               0.00E+00 0.00E+00
  18    17.00   93.700  194.8  0.00E+00 0.00E+00 0.00E+00 0.00E+00 0.00E+00 0.00E+00 0.00E+00 0.00E+00 0.00E+00 0.00E+00 0.00E+00
                               0.00E+00 0.00E+00
  19    18.00   78.900  198.8  0.00E+00 0.00E+00 0.00E+00 0.00E+00 0.00E+00 0.00E+00 0.00E+00 0.00E+00 0.00E+00 0.00E+00 0.00E+00
                               0.00E+00 0.00E+00
  20    19.00   66.600  202.7  0.00E+00 0.00E+00 0.00E+00 0.00E+00 0.00E+00 0.00E+00 0.00E+00 0.00E+00 0.00E+00 0.00E+00 0.00E+00
                               0.00E+00 0.00E+00
  21    20.00   56.500  206.7  0.00E+00 0.00E+00 0.00E+00 0.00E+00 0.00E+00 0.00E+00 0.00E+00 0.00E+00 0.00E+00 0.00E+00 0.00E+00
                               0.00E+00 0.00E+00
  22    21.00   48.000  210.7  0.00E+00 0.00E+00 0.00E+00 0.00E+00 0.00E+00 0.00E+00 0.00E+00 0.00E+00 0.00E+00 0.00E+00 0.00E+00
                               0.00E+00 0.00E+00
  23    22.00   40.900  214.6  0.00E+00 0.00E+00 0.00E+00 0.00E+00 0.00E+00 0.00E+00 0.00E+00 0.00E+00 0.00E+00 0.00E+00 0.00E+00
                               0.00E+00 0.00E+00
  24    23.00   35.000  217.0  0.00E+00 0.00E+00 0.00E+00 0.00E+00 0.00E+00 0.00E+00 0.00E+00 0.00E+00 0.00E+00 0.00E+00 0.00E+00
                               0.00E+00 0.00E+00
  25    24.00   30.000  219.2  0.00E+00 0.00E+00 0.00E+00 0.00E+00 0.00E+00 0.00E+00 0.00E+00 0.00E+00 0.00E+00 0.00E+00 0.00E+00
                               0.00E+00 0.00E+00
  26    25.00   25.700  221.4  0.00E+00 0.00E+00 0.00E+00 0.00E+00 0.00E+00 0.00E+00 0.00E+00 0.00E+00 0.00E+00 0.00E+00 0.00E+00
                               0.00E+00 0.00E+00
  27    30.00   12.200  232.3  0.00E+00 0.00E+00 0.00E+00 0.00E+00 0.00E+00 0.00E+00 0.00E+00 0.00E+00 0.00E+00 0.00E+00 0.00E+00
                               0.00E+00 0.00E+00
  28    35.00    6.000  243.1  0.00E+00 0.00E+00 0.00E+00 0.00E+00 0.00E+00 0.00E+00 0.00E+00 0.00E+00 0.00E+00 0.00E+00 0.00E+00
                               0.00E+00 0.00E+00
  29    40.00    3.050  254.0  0.00E+00 0.00E+00 0.00E+00 0.00E+00 0.00E+00 0.00E+00 0.00E+00 0.00E+00 0.00E+00 0.00E+00 0.00E+00
                               0.00E+00 0.00E+00
  30    45.00    1.590  264.8  0.00E+00 0.00E+00 0.00E+00 0.00E+00 0.00E+00 0.00E+00 0.00E+00 0.00E+00 0.00E+00 0.00E+00 0.00E+00
                               0.00E+00 0.00E+00
  31    50.00    0.854  270.2  0.00E+00 0.00E+00 0.00E+00 0.00E+00 0.00E+00 0.00E+00 0.00E+00 0.00E+00 0.00E+00 0.00E+00 0.00E+00
                               0.00E+00 0.00E+00
  32    70.00    0.058  218.9  0.00E+00 0.00E+00 0.00E+00 0.00E+00 0.00E+00 0.00E+00 0.00E+00 0.00E+00 0.00E+00 0.00E+00 0.00E+00
                               0.00E+00 0.00E+00
  33   100.00    0.000  190.7  0.00E+00 0.00E+00 0.00E+00 0.00E+00 0.00E+00 0.00E+00 0.00E+00 0.00E+00 0.00E+00 0.00E+00 0.00E+00
                               0.00E+00 0.00E+00


 CASE 3A: GIVEN H1,H2=SPACE,ANGLE



 TANGENT PATH WITH H1 =     70.000 AND ANGLE =    180.000 INTERSECTS THE EARTH

          H2 HAS BEEN RESET TO 0.0 AND LEN TO 0



 SLANT PATH PARAMETERS IN STANDARD FORM

          H1      =     70.000 KM
          H2      =      0.000 KM
          ANGLE   =    180.000 DEG
          PHI     =      0.000 DEG
          HMIN    =      0.000 KM
          LEN     =          0
1CALCULATION OF THE REFRACTED PATH THROUGH THE ATMOSPHERE


  I       ALTITUDE        THETA  DRANGE    RANGE    DBETA     BETA     PHI     DBEND  BENDING    PBAR    TBAR   RHOBAR
      FROM       TO
      (KM)      (KM)      (DEG)    (KM)     (KM)    (DEG)    (DEG)    (DEG)    (DEG)    (DEG)    (MB)    (K)  (GM CM-3)

          H2 TO H1

  1    0.000    1.000    0.000    1.000    1.000    0.000    0.000  180.000   -0.000   -0.000  958.316  296.74 1.12E-03
  2    1.000    2.000    0.000    1.000    2.000    0.000    0.000  180.000   -0.000   -0.000  854.330  290.74 1.02E-03
  3    2.000    3.000    0.000    1.000    3.000    0.000    0.000  180.000   -0.000   -0.000  759.895  285.73 9.26E-04
  4    3.000    4.000    0.000    1.000    4.000    0.000    0.000  180.000    0.000   -0.000  673.837  280.39 8.36E-04
  5    4.000    5.000    0.000    1.000    5.000    0.000    0.000  180.000    0.000   -0.000  595.849  273.69 7.58E-04
  6    5.000    6.000    0.000    1.000    6.000    0.000    0.000  180.000    0.000    0.000  525.360  266.99 6.85E-04
  7    6.000    7.000    0.000    1.000    7.000    0.000    0.000  180.000    0.000    0.000  461.873  260.34 6.17E-04
  8    7.000    8.000    0.000    1.000    8.000    0.000    0.000  180.000    0.000    0.000  404.881  253.70 5.55E-04
  9    8.000    9.000    0.000    1.000    9.000    0.000    0.000  180.000    0.000    0.000  353.389  247.00 4.98E-04
 10    9.000   10.000    0.000    1.000   10.000    0.000    0.000  180.000    0.000    0.000  307.402  240.35 4.45E-04
 11   10.000   11.000    0.000    1.000   11.000    0.000    0.000  180.000    0.000    0.000  266.404  233.60 3.97E-04
 12   11.000   12.000    0.000    1.000   12.000    0.000    0.000  180.000    0.000    0.000  229.919  226.90 3.52E-04
 13   12.000   13.000    0.000    1.000   13.000    0.000    0.000  180.000    0.000    0.000  197.423  220.35 3.12E-04
 14   13.000   14.000    0.000    1.000   14.000    0.000    0.000  180.000    0.000    0.000  168.932  213.70 2.75E-04
 15   14.000   15.000    0.000    1.000   15.000    0.000    0.000  180.000    0.000    0.000  143.936  207.06 2.42E-04
 16   15.000   16.000    0.000    1.000   16.000    0.000    0.000  180.000    0.000    0.000  121.442  200.41 2.11E-04
 17   16.000   17.000    0.000    1.000   17.000    0.000    0.000  180.000    0.000    0.000  102.334  195.93 1.82E-04
 18   17.000   18.000    0.000    1.000   18.000    0.000    0.000  180.000    0.000    0.000   86.325  196.73 1.52E-04
 19   18.000   19.000    0.000    1.000   19.000    0.000    0.000  180.000    0.000    0.000   72.770  200.68 1.26E-04
 20   19.000   20.000    0.000    1.000   20.000    0.000    0.000  180.000    0.000    0.000   61.566  204.63 1.05E-04
 21   20.000   21.000    0.000    1.000   21.000    0.000    0.000  180.000    0.000    0.000   52.264  208.63 8.71E-05
 22   21.000   22.000    0.000    1.000   22.000    0.000    0.000  180.000    0.000    0.000   44.461  212.59 7.27E-05
 23   22.000   23.000    0.000    1.000   23.000    0.000    0.000  180.000    0.000    0.000   37.955  215.76 6.11E-05
 24   23.000   24.000    0.000    1.000   24.000    0.000    0.000  180.000    0.000    0.000   32.504  218.07 5.18E-05
 25   24.000   25.000    0.000    1.000   25.000    0.000    0.000  180.000    0.000    0.000   27.854  220.27 4.40E-05
 26   25.000   30.000    0.000    5.000   30.000    0.000    0.000  180.000    0.000    0.000   19.003  226.09 2.79E-05
 27   30.000   35.000    0.000    5.000   35.000    0.000    0.000  180.000    0.000    0.000    9.123  236.99 1.28E-05
 28   35.000   40.000    0.000    5.000   40.000    0.000    0.000  180.000    0.000    0.000    4.536  247.86 6.13E-06
 29   40.000   45.000    0.000    5.000   45.000    0.000    0.000  180.000    0.000    0.000    2.325  258.74 3.02E-06
 30   45.000   50.000    0.000    5.000   50.000    0.000    0.000  180.000    0.000    0.000    1.223  267.20 1.54E-06
 31   50.000   70.000    0.000   20.000   70.000    0.000    0.000  180.000    0.000    0.000    0.445  253.37 4.07E-07




1CUMULATIVE ABSORBER AMOUNTS FOR THE PATH FROM H1 TO Z

  J     Z        TBAR     HNO3        O3 UV      CNTMSLF1   CNTMSLF2    CNTMFRN      O2
       (KM)       (K)   (ATM CM)    (ATM CM)    (MOL CM-2)  (MOL CM-2)  (MOL CM-2)(MOL CM-2)

  1   50.000   253.37   0.000E+00   0.000E+00   2.735E+12   3.238E+12   4.803E+15   1.316E+02
  2   45.000   267.20   0.000E+00   0.000E+00   9.996E+12   9.046E+12   1.728E+16   2.565E+02
  3   40.000   258.74   0.000E+00   0.000E+00   3.395E+13   3.384E+13   6.171E+16   5.009E+02
  4   35.000   247.86   0.000E+00   0.000E+00   1.134E+14   1.400E+14   2.262E+17   9.982E+02
  5   30.000   236.99   0.000E+00   0.000E+00   3.815E+14   5.796E+14   8.608E+17   2.045E+03
  6   25.000   226.09   0.000E+00   0.000E+00   1.267E+15   2.300E+15   3.372E+18   4.346E+03
  7   24.000   220.27   0.000E+00   0.000E+00   1.618E+15   3.036E+15   4.459E+18   5.077E+03
  8   23.000   218.07   0.000E+00   0.000E+00   2.051E+15   3.974E+15   5.884E+18   5.942E+03
  9   22.000   215.76   0.000E+00   0.000E+00   2.579E+15   5.153E+15   7.742E+18   6.969E+03
 10   21.000   212.59   0.000E+00   0.000E+00   3.262E+15   6.733E+15   1.025E+19   8.199E+03
 11   20.000   208.63   0.000E+00   0.000E+00   4.172E+15   8.943E+15   1.372E+19   9.685E+03
 12   19.000   204.63   0.000E+00   0.000E+00   5.462E+15   1.222E+16   1.869E+19   1.149E+04
 13   18.000   200.68   0.000E+00   0.000E+00   7.451E+15   1.748E+16   2.611E+19   1.369E+04
 14   17.000   196.73   0.000E+00   0.000E+00   1.070E+16   2.644E+16   3.760E+19   1.640E+04
 15   16.000   195.93   0.000E+00   0.000E+00   1.571E+16   4.037E+16   5.458E+19   1.968E+04
 16   15.000   200.41   0.000E+00   0.000E+00   2.525E+16   6.571E+16   8.167E+19   2.354E+04
 17   14.000   207.06   0.000E+00   0.000E+00   5.194E+16   1.316E+17   1.334E+20   2.806E+04
 18   13.000   213.70   0.000E+00   0.000E+00   1.376E+17   3.275E+17   2.387E+20   3.329E+04
 19   12.000   220.35   0.000E+00   0.000E+00   7.490E+17   1.612E+18   5.461E+20   3.933E+04
 20   11.000   226.90   0.000E+00   0.000E+00   6.209E+18   1.209E+19   1.593E+21   4.632E+04
 21   10.000   233.60   0.000E+00   0.000E+00   5.230E+19   9.198E+19   4.977E+21   5.437E+04
 22    9.000   240.35   0.000E+00   0.000E+00   3.578E+20   5.643E+20   1.470E+22   6.362E+04
 23    8.000   247.00   0.000E+00   0.000E+00   1.831E+21   2.569E+21   3.803E+22   7.425E+04
 24    7.000   253.70   0.000E+00   0.000E+00   7.467E+21   9.192E+21   8.672E+22   8.643E+04
 25    6.000   260.34   0.000E+00   0.000E+00   2.649E+22   2.803E+22   1.786E+23   1.004E+05
 26    5.000   266.99   0.000E+00   0.000E+00   8.694E+22   7.674E+22   3.372E+23   1.163E+05
 27    4.000   273.69   0.000E+00   0.000E+00   2.389E+23   1.709E+23   5.725E+23   1.345E+05
 28    3.000   280.39   0.000E+00   0.000E+00   7.495E+23   3.923E+23   7.901E+23   1.553E+05
 29    2.000   285.73   0.000E+00   0.000E+00   2.871E+24   9.976E+23   1.950E+23   1.792E+05
 30    1.000   290.74   0.000E+00   0.000E+00   8.413E+24   1.808E+24  -4.814E+23   2.066E+05
 31    0.000   296.74   0.000E+00   0.000E+00   1.979E+25   1.575E+24  -4.814E+23   2.379E+05



1 J     Z       N2 CONT    MOL SCAT       AER 1       AER 2       AER 3       AER 4       CIRRUS
       (KM)

  1   50.000   2.670E-06   6.298E-03   0.000E+00   0.000E+00   0.000E+00   0.000E+00   0.000E+00
  2   45.000   9.444E-06   1.227E-02   0.000E+00   0.000E+00   0.000E+00   0.000E+00   0.000E+00
  3   40.000   3.547E-05   2.395E-02   0.000E+00   0.000E+00   0.000E+00   0.000E+00   0.000E+00
  4   35.000   1.431E-04   4.766E-02   0.000E+00   0.000E+00   0.000E+00   0.000E+00   0.000E+00
  5   30.000   6.178E-04   9.735E-02   0.000E+00   0.000E+00   0.000E+00   0.000E+00   0.000E+00
  6   25.000   2.871E-03   2.054E-01   0.000E+00   0.000E+00   0.000E+00   0.000E+00   0.000E+00
  7   24.000   3.936E-03   2.394E-01   0.000E+00   0.000E+00   0.000E+00   0.000E+00   0.000E+00
  8   23.000   5.416E-03   2.795E-01   0.000E+00   0.000E+00   0.000E+00   0.000E+00   0.000E+00
  9   22.000   7.476E-03   3.268E-01   0.000E+00   0.000E+00   0.000E+00   0.000E+00   0.000E+00
 10   21.000   1.039E-02   3.830E-01   0.000E+00   0.000E+00   0.000E+00   0.000E+00   0.000E+00
 11   20.000   1.457E-02   4.504E-01   0.000E+00   0.000E+00   0.000E+00   0.000E+00   0.000E+00
 12   19.000   2.059E-02   5.313E-01   0.000E+00   0.000E+00   0.000E+00   0.000E+00   0.000E+00
 13   18.000   2.934E-02   6.288E-01   0.000E+00   0.000E+00   0.000E+00   0.000E+00   0.000E+00
 14   17.000   4.216E-02   7.468E-01   0.000E+00   0.000E+00   0.000E+00   0.000E+00   0.000E+00
 15   16.000   6.032E-02   8.873E-01   0.000E+00   0.000E+00   0.000E+00   0.000E+00   0.000E+00
 16   15.000   8.476E-02   1.050E+00   0.000E+00   0.000E+00   0.000E+00   0.000E+00   0.000E+00
 17   14.000   1.169E-01   1.237E+00   0.000E+00   0.000E+00   0.000E+00   0.000E+00   0.000E+00
 18   13.000   1.585E-01   1.450E+00   0.000E+00   0.000E+00   0.000E+00   0.000E+00   0.000E+00
 19   12.000   2.120E-01   1.691E+00   0.000E+00   0.000E+00   0.000E+00   0.000E+00   0.000E+00
 20   11.000   2.804E-01   1.964E+00   0.000E+00   0.000E+00   0.000E+00   0.000E+00   0.000E+00
 21   10.000   3.670E-01   2.271E+00   0.000E+00   0.000E+00   0.000E+00   0.000E+00   0.000E+00
 22    9.000   4.760E-01   2.615E+00   0.000E+00   0.000E+00   0.000E+00   0.000E+00   0.000E+00
 23    8.000   6.123E-01   3.001E+00   0.000E+00   0.000E+00   0.000E+00   0.000E+00   0.000E+00
 24    7.000   7.820E-01   3.430E+00   0.000E+00   0.000E+00   0.000E+00   0.000E+00   0.000E+00
 25    6.000   9.917E-01   3.908E+00   0.000E+00   0.000E+00   0.000E+00   0.000E+00   0.000E+00
 26    5.000   1.250E+00   4.438E+00   0.000E+00   0.000E+00   0.000E+00   0.000E+00   0.000E+00
 27    4.000   1.566E+00   5.024E+00   0.000E+00   0.000E+00   0.000E+00   0.000E+00   0.000E+00
 28    3.000   1.950E+00   5.671E+00   0.000E+00   0.000E+00   0.000E+00   0.000E+00   0.000E+00
 29    2.000   2.422E+00   6.388E+00   0.000E+00   0.000E+00   0.000E+00   0.000E+00   0.000E+00
 30    1.000   2.997E+00   7.179E+00   0.000E+00   0.000E+00   0.000E+00   0.000E+00   0.000E+00
 31    0.000   3.692E+00   8.049E+00   0.000E+00   0.000E+00   0.000E+00   0.000E+00   0.000E+00



1  J    Z       H2O       O3        CO2       CO        CH4       N2O       O2        NH3       NO        NO2       SO2
      (KM)    (                                                      ATM CM                                             )

   1   50.00  3.46E-01  0.00E+00  0.00E+00  0.00E+00  0.00E+00  0.00E+00  1.32E+02  0.00E+00  0.00E+00  0.00E+00  0.00E+00
   2   45.00  6.94E-01  0.00E+00  0.00E+00  0.00E+00  0.00E+00  0.00E+00  2.56E+02  0.00E+00  0.00E+00  0.00E+00  0.00E+00
   3   40.00  1.33E+00  0.00E+00  0.00E+00  0.00E+00  0.00E+00  0.00E+00  5.00E+02  0.00E+00  0.00E+00  0.00E+00  0.00E+00
   4   35.00  2.48E+00  0.00E+00  0.00E+00  0.00E+00  0.00E+00  0.00E+00  9.95E+02  0.00E+00  0.00E+00  0.00E+00  0.00E+00
   5   30.00  4.59E+00  0.00E+00  0.00E+00  0.00E+00  0.00E+00  0.00E+00  2.03E+03  0.00E+00  0.00E+00  0.00E+00  0.00E+00
   6   25.00  8.44E+00  0.00E+00  0.00E+00  0.00E+00  0.00E+00  0.00E+00  4.29E+03  0.00E+00  0.00E+00  0.00E+00  0.00E+00
   7   24.00  9.53E+00  0.00E+00  0.00E+00  0.00E+00  0.00E+00  0.00E+00  5.00E+03  0.00E+00  0.00E+00  0.00E+00  0.00E+00
   8   23.00  1.08E+01  0.00E+00  0.00E+00  0.00E+00  0.00E+00  0.00E+00  5.84E+03  0.00E+00  0.00E+00  0.00E+00  0.00E+00
   9   22.00  1.21E+01  0.00E+00  0.00E+00  0.00E+00  0.00E+00  0.00E+00  6.83E+03  0.00E+00  0.00E+00  0.00E+00  0.00E+00
  10   21.00  1.36E+01  0.00E+00  0.00E+00  0.00E+00  0.00E+00  0.00E+00  8.00E+03  0.00E+00  0.00E+00  0.00E+00  0.00E+00
  11   20.00  1.54E+01  0.00E+00  0.00E+00  0.00E+00  0.00E+00  0.00E+00  9.41E+03  0.00E+00  0.00E+00  0.00E+00  0.00E+00
  12   19.00  1.75E+01  0.00E+00  0.00E+00  0.00E+00  0.00E+00  0.00E+00  1.11E+04  0.00E+00  0.00E+00  0.00E+00  0.00E+00
  13   18.00  2.01E+01  0.00E+00  0.00E+00  0.00E+00  0.00E+00  0.00E+00  1.31E+04  0.00E+00  0.00E+00  0.00E+00  0.00E+00
  14   17.00  2.34E+01  0.00E+00  0.00E+00  0.00E+00  0.00E+00  0.00E+00  1.56E+04  0.00E+00  0.00E+00  0.00E+00  0.00E+00
  15   16.00  2.76E+01  0.00E+00  0.00E+00  0.00E+00  0.00E+00  0.00E+00  1.85E+04  0.00E+00  0.00E+00  0.00E+00  0.00E+00
  16   15.00  3.33E+01  0.00E+00  0.00E+00  0.00E+00  0.00E+00  0.00E+00  2.19E+04  0.00E+00  0.00E+00  0.00E+00  0.00E+00
  17   14.00  4.27E+01  0.00E+00  0.00E+00  0.00E+00  0.00E+00  0.00E+00  2.58E+04  0.00E+00  0.00E+00  0.00E+00  0.00E+00
  18   13.00  5.96E+01  0.00E+00  0.00E+00  0.00E+00  0.00E+00  0.00E+00  3.03E+04  0.00E+00  0.00E+00  0.00E+00  0.00E+00
  19   12.00  1.03E+02  0.00E+00  0.00E+00  0.00E+00  0.00E+00  0.00E+00  3.53E+04  0.00E+00  0.00E+00  0.00E+00  0.00E+00
  20   11.00  2.34E+02  0.00E+00  0.00E+00  0.00E+00  0.00E+00  0.00E+00  4.10E+04  0.00E+00  0.00E+00  0.00E+00  0.00E+00
  21   10.00  6.14E+02  0.00E+00  0.00E+00  0.00E+00  0.00E+00  0.00E+00  4.74E+04  0.00E+00  0.00E+00  0.00E+00  0.00E+00
  22    9.00  1.61E+03  0.00E+00  0.00E+00  0.00E+00  0.00E+00  0.00E+00  5.46E+04  0.00E+00  0.00E+00  0.00E+00  0.00E+00
  23    8.00  3.81E+03  0.00E+00  0.00E+00  0.00E+00  0.00E+00  0.00E+00  6.27E+04  0.00E+00  0.00E+00  0.00E+00  0.00E+00
  24    7.00  8.14E+03  0.00E+00  0.00E+00  0.00E+00  0.00E+00  0.00E+00  7.16E+04  0.00E+00  0.00E+00  0.00E+00  0.00E+00
  25    6.00  1.61E+04  0.00E+00  0.00E+00  0.00E+00  0.00E+00  0.00E+00  8.16E+04  0.00E+00  0.00E+00  0.00E+00  0.00E+00
  26    5.00  3.03E+04  0.00E+00  0.00E+00  0.00E+00  0.00E+00  0.00E+00  9.27E+04  0.00E+00  0.00E+00  0.00E+00  0.00E+00
  27    4.00  5.30E+04  0.00E+00  0.00E+00  0.00E+00  0.00E+00  0.00E+00  1.05E+05  0.00E+00  0.00E+00  0.00E+00  0.00E+00
  28    3.00  9.40E+04  0.00E+00  0.00E+00  0.00E+00  0.00E+00  0.00E+00  1.18E+05  0.00E+00  0.00E+00  0.00E+00  0.00E+00
  29    2.00  1.78E+05  0.00E+00  0.00E+00  0.00E+00  0.00E+00  0.00E+00  1.33E+05  0.00E+00  0.00E+00  0.00E+00  0.00E+00
  30    1.00  3.15E+05  0.00E+00  0.00E+00  0.00E+00  0.00E+00  0.00E+00  1.50E+05  0.00E+00  0.00E+00  0.00E+00  0.00E+00
  31    0.00  5.12E+05  0.00E+00  0.00E+00  0.00E+00  0.00E+00  0.00E+00  1.68E+05  0.00E+00  0.00E+00  0.00E+00  0.00E+00



1  J    Z      CFC-11    CFC-12    CFC-13    CFC-14    CFC-22    CFC-113   CFC-114   CFC-115   CLONO2     HNO4     CHCL2F 
                CCL4      N2O5  
      (KM)    (                                                   ATM CM                                                )

   1   50.00  0.00E+00  0.00E+00  0.00E+00  0.00E+00  0.00E+00  0.00E+00  0.00E+00  0.00E+00  0.00E+00  0.00E+00  0.00E+00
              0.00E+00  0.00E+00
   2   45.00  0.00E+00  0.00E+00  0.00E+00  0.00E+00  0.00E+00  0.00E+00  0.00E+00  0.00E+00  0.00E+00  0.00E+00  0.00E+00
              0.00E+00  0.00E+00
   3   40.00  0.00E+00  0.00E+00  0.00E+00  0.00E+00  0.00E+00  0.00E+00  0.00E+00  0.00E+00  0.00E+00  0.00E+00  0.00E+00
              0.00E+00  0.00E+00
   4   35.00  0.00E+00  0.00E+00  0.00E+00  0.00E+00  0.00E+00  0.00E+00  0.00E+00  0.00E+00  0.00E+00  0.00E+00  0.00E+00
              0.00E+00  0.00E+00
   5   30.00  0.00E+00  0.00E+00  0.00E+00  0.00E+00  0.00E+00  0.00E+00  0.00E+00  0.00E+00  0.00E+00  0.00E+00  0.00E+00
              0.00E+00  0.00E+00
   6   25.00  0.00E+00  0.00E+00  0.00E+00  0.00E+00  0.00E+00  0.00E+00  0.00E+00  0.00E+00  0.00E+00  0.00E+00  0.00E+00
              0.00E+00  0.00E+00
   7   24.00  0.00E+00  0.00E+00  0.00E+00  0.00E+00  0.00E+00  0.00E+00  0.00E+00  0.00E+00  0.00E+00  0.00E+00  0.00E+00
              0.00E+00  0.00E+00
   8   23.00  0.00E+00  0.00E+00  0.00E+00  0.00E+00  0.00E+00  0.00E+00  0.00E+00  0.00E+00  0.00E+00  0.00E+00  0.00E+00
              0.00E+00  0.00E+00
   9   22.00  0.00E+00  0.00E+00  0.00E+00  0.00E+00  0.00E+00  0.00E+00  0.00E+00  0.00E+00  0.00E+00  0.00E+00  0.00E+00
              0.00E+00  0.00E+00
  10   21.00  0.00E+00  0.00E+00  0.00E+00  0.00E+00  0.00E+00  0.00E+00  0.00E+00  0.00E+00  0.00E+00  0.00E+00  0.00E+00
              0.00E+00  0.00E+00
  11   20.00  0.00E+00  0.00E+00  0.00E+00  0.00E+00  0.00E+00  0.00E+00  0.00E+00  0.00E+00  0.00E+00  0.00E+00  0.00E+00
              0.00E+00  0.00E+00
  12   19.00  0.00E+00  0.00E+00  0.00E+00  0.00E+00  0.00E+00  0.00E+00  0.00E+00  0.00E+00  0.00E+00  0.00E+00  0.00E+00
              0.00E+00  0.00E+00
  13   18.00  0.00E+00  0.00E+00  0.00E+00  0.00E+00  0.00E+00  0.00E+00  0.00E+00  0.00E+00  0.00E+00  0.00E+00  0.00E+00
              0.00E+00  0.00E+00
  14   17.00  0.00E+00  0.00E+00  0.00E+00  0.00E+00  0.00E+00  0.00E+00  0.00E+00  0.00E+00  0.00E+00  0.00E+00  0.00E+00
              0.00E+00  0.00E+00
  15   16.00  0.00E+00  0.00E+00  0.00E+00  0.00E+00  0.00E+00  0.00E+00  0.00E+00  0.00E+00  0.00E+00  0.00E+00  0.00E+00
              0.00E+00  0.00E+00
  16   15.00  0.00E+00  0.00E+00  0.00E+00  0.00E+00  0.00E+00  0.00E+00  0.00E+00  0.00E+00  0.00E+00  0.00E+00  0.00E+00
              0.00E+00  0.00E+00
  17   14.00  0.00E+00  0.00E+00  0.00E+00  0.00E+00  0.00E+00  0.00E+00  0.00E+00  0.00E+00  0.00E+00  0.00E+00  0.00E+00
              0.00E+00  0.00E+00
  18   13.00  0.00E+00  0.00E+00  0.00E+00  0.00E+00  0.00E+00  0.00E+00  0.00E+00  0.00E+00  0.00E+00  0.00E+00  0.00E+00
              0.00E+00  0.00E+00
  19   12.00  0.00E+00  0.00E+00  0.00E+00  0.00E+00  0.00E+00  0.00E+00  0.00E+00  0.00E+00  0.00E+00  0.00E+00  0.00E+00
              0.00E+00  0.00E+00
  20   11.00  0.00E+00  0.00E+00  0.00E+00  0.00E+00  0.00E+00  0.00E+00  0.00E+00  0.00E+00  0.00E+00  0.00E+00  0.00E+00
              0.00E+00  0.00E+00
  21   10.00  0.00E+00  0.00E+00  0.00E+00  0.00E+00  0.00E+00  0.00E+00  0.00E+00  0.00E+00  0.00E+00  0.00E+00  0.00E+00
              0.00E+00  0.00E+00
  22    9.00  0.00E+00  0.00E+00  0.00E+00  0.00E+00  0.00E+00  0.00E+00  0.00E+00  0.00E+00  0.00E+00  0.00E+00  0.00E+00
              0.00E+00  0.00E+00
  23    8.00  0.00E+00  0.00E+00  0.00E+00  0.00E+00  0.00E+00  0.00E+00  0.00E+00  0.00E+00  0.00E+00  0.00E+00  0.00E+00
              0.00E+00  0.00E+00
  24    7.00  0.00E+00  0.00E+00  0.00E+00  0.00E+00  0.00E+00  0.00E+00  0.00E+00  0.00E+00  0.00E+00  0.00E+00  0.00E+00
              0.00E+00  0.00E+00
  25    6.00  0.00E+00  0.00E+00  0.00E+00  0.00E+00  0.00E+00  0.00E+00  0.00E+00  0.00E+00  0.00E+00  0.00E+00  0.00E+00
              0.00E+00  0.00E+00
  26    5.00  0.00E+00  0.00E+00  0.00E+00  0.00E+00  0.00E+00  0.00E+00  0.00E+00  0.00E+00  0.00E+00  0.00E+00  0.00E+00
              0.00E+00  0.00E+00
  27    4.00  0.00E+00  0.00E+00  0.00E+00  0.00E+00  0.00E+00  0.00E+00  0.00E+00  0.00E+00  0.00E+00  0.00E+00  0.00E+00
              0.00E+00  0.00E+00
  28    3.00  0.00E+00  0.00E+00  0.00E+00  0.00E+00  0.00E+00  0.00E+00  0.00E+00  0.00E+00  0.00E+00  0.00E+00  0.00E+00
              0.00E+00  0.00E+00
  29    2.00  0.00E+00  0.00E+00  0.00E+00  0.00E+00  0.00E+00  0.00E+00  0.00E+00  0.00E+00  0.00E+00  0.00E+00  0.00E+00
              0.00E+00  0.00E+00
  30    1.00  0.00E+00  0.00E+00  0.00E+00  0.00E+00  0.00E+00  0.00E+00  0.00E+00  0.00E+00  0.00E+00  0.00E+00  0.00E+00
              0.00E+00  0.00E+00
  31    0.00  0.00E+00  0.00E+00  0.00E+00  0.00E+00  0.00E+00  0.00E+00  0.00E+00  0.00E+00  0.00E+00  0.00E+00  0.00E+00
              0.00E+00  0.00E+00


0SUMMARY OF THE GEOMETRY CALCULATION

          H1      =     70.000 KM
          H2      =      0.000 KM
          ANGLE   =    180.000 DEG
          RANGE   =     70.000 KM
          BETA    =      0.000 DEG
          PHI     =      0.000 DEG
          HMIN    =      0.000 KM
          BENDING =      0.000 DEG
          LEN     =          0




1EQUIVALENT SEA LEVEL TOTAL ABSORBER AMOUNTS

                 HNO3      O3 UV       CNTMSLF1    CNTMSLF2   CNTMFRN
               (ATM CM)   (ATM CM)     (MOL CM-2)  (MOL CM-2)  (MOL CM-2)  (MOL CM-2)

             0.000E+00   0.000E+00   1.979E+25   1.575E+24  -4.814E+23


              N2 CONT    MOL SCAT       AER 1       AER 2       AER 3       AER 4     CIRRUS      MEAN RH
                                                                                                  (PRCNT)

             3.692E+00   8.049E+00   0.000E+00   0.000E+00   0.000E+00   0.000E+00   0.000E+00        0.00


                 H2O        O3          CO2         CO          CH4         N2O          O2
               (                                        ATM CM                            )

             5.115E+05   0.000E+00   0.000E+00   0.000E+00   0.000E+00   0.000E+00   1.681E+05

                 NH3        NO          NO2         SO2
                 (               ATM CM               )

             0.000E+00   0.000E+00   0.000E+00   0.000E+00

             CFC-11      CFC-12      CFC-13      CFC-14      CFC-22      CFC-113     CFC-114
                 (                                      ATM CM                            )

             0.000E+00   0.000E+00   0.000E+00   0.000E+00   0.000E+00   0.000E+00   0.000E+00

             CFC-115     CLONO2       HNO4       CHCL2F       CCL4        N2O5  
                 (                                      ATM CM                            )

             0.000E+00   0.000E+00   0.000E+00   0.000E+00   0.000E+00   0.000E+00
  iv           -5
  iv            0
1                                             RADIANCE(WATTS/CM2-STER-XXX)
0  FREQ   WAVLEN    PATH THERMAL      SURFACE EMISSION    SURFACE REFLECTED     TOTAL RADIANCE   INTEGRAL    TOTAL
  (CM-1) (MICRN)    (CM-1)   (MICRN)    (CM-1)   (MICRN)    (CM-1)   (MICRN)    (CM-1)   (MICRN)    (CM-1)   TRANS

      2. 4999.998       NaN       NaN       NaN       NaN  0.00E+00  0.00E+00       NaN       NaN       NaN      NaN
      4. 2500.000  3.44E-09  5.50E-12  3.90E-43  0.00E+00  0.00E+00  0.00E+00  3.44E-09  5.50E-12       NaN  0.00000
      6. 1666.666  7.29E-09  2.62E-11  0.00E+00  0.00E+00  0.00E+00  0.00E+00  7.29E-09  2.62E-11       NaN  0.00000
      8. 1250.000  1.27E-08  8.10E-11  0.00E+00  0.00E+00  0.00E+00  0.00E+00  1.27E-08  8.10E-11       NaN  0.00000
     10. 1000.000  1.92E-08  1.92E-10  0.00E+00  0.00E+00  0.00E+00  0.00E+00  1.92E-08  1.92E-10       NaN  0.00000
     12.  833.333  2.65E-08  3.82E-10  0.00E+00  0.00E+00  0.00E+00  0.00E+00  2.65E-08  3.82E-10       NaN  0.00000
     14.  714.286  3.51E-08  6.88E-10  0.00E+00  0.00E+00  0.00E+00  0.00E+00  3.51E-08  6.88E-10       NaN  0.00000
     16.  625.000  4.44E-08  1.14E-09  0.00E+00  0.00E+00  0.00E+00  0.00E+00  4.44E-08  1.14E-09       NaN  0.00000
     18.  555.555  5.42E-08  1.76E-09  0.00E+00  0.00E+00  0.00E+00  0.00E+00  5.42E-08  1.76E-09       NaN  0.00000
     20.  500.000  6.74E-08  2.69E-09  0.00E+00  0.00E+00  0.00E+00  0.00E+00  6.74E-08  2.69E-09       NaN  0.00000
     22.  454.545  8.28E-08  4.01E-09  0.00E+00  0.00E+00  0.00E+00  0.00E+00  8.28E-08  4.01E-09       NaN  0.00000
     24.  416.667  9.60E-08  5.53E-09  0.00E+00  0.00E+00  0.00E+00  0.00E+00  9.60E-08  5.53E-09       NaN  0.00000
     26.  384.615  1.11E-07  7.49E-09  0.00E+00  0.00E+00  0.00E+00  0.00E+00  1.11E-07  7.49E-09       NaN  0.00000
     28.  357.143  1.31E-07  1.03E-08  0.00E+00  0.00E+00  0.00E+00  0.00E+00  1.31E-07  1.03E-08       NaN  0.00000
     30.  333.333  1.48E-07  1.33E-08  0.00E+00  0.00E+00  0.00E+00  0.00E+00  1.48E-07  1.33E-08       NaN  0.00000
     32.  312.500  1.63E-07  1.66E-08  0.00E+00  0.00E+00  0.00E+00  0.00E+00  1.63E-07  1.66E-08       NaN  0.00000
     34.  294.118  1.80E-07  2.08E-08  0.00E+00  0.00E+00  0.00E+00  0.00E+00  1.80E-07  2.08E-08       NaN  0.00000
     36.  277.778  2.03E-07  2.63E-08  0.00E+00  0.00E+00  0.00E+00  0.00E+00  2.03E-07  2.63E-08       NaN  0.00000
     38.  263.158  2.30E-07  3.33E-08  0.00E+00  0.00E+00  0.00E+00  0.00E+00  2.30E-07  3.33E-08       NaN  0.00000
     40.  250.000  2.50E-07  4.01E-08  0.00E+00  0.00E+00  0.00E+00  0.00E+00  2.50E-07  4.01E-08       NaN  0.00000
     42.  238.095  2.70E-07  4.76E-08  0.00E+00  0.00E+00  0.00E+00  0.00E+00  2.70E-07  4.76E-08       NaN  0.00000
     44.  227.273  2.94E-07  5.69E-08  0.00E+00  0.00E+00  0.00E+00  0.00E+00  2.94E-07  5.69E-08       NaN  0.00000
     46.  217.391  3.19E-07  6.75E-08  0.00E+00  0.00E+00  0.00E+00  0.00E+00  3.19E-07  6.75E-08       NaN  0.00000
     48.  208.333  3.42E-07  7.88E-08  0.00E+00  0.00E+00  0.00E+00  0.00E+00  3.42E-07  7.88E-08       NaN  0.00000
     50.  200.000  3.68E-07  9.19E-08  0.00E+00  0.00E+00  0.00E+00  0.00E+00  3.68E-07  9.19E-08       NaN  0.00000
     52.  192.308  3.94E-07  1.07E-07  0.00E+00  0.00E+00  0.00E+00  0.00E+00  3.94E-07  1.07E-07       NaN  0.00000
     54.  185.185  4.35E-07  1.27E-07  0.00E+00  0.00E+00  0.00E+00  0.00E+00  4.35E-07  1.27E-07       NaN  0.00000
     56.  178.571  4.86E-07  1.52E-07  0.00E+00  0.00E+00  0.00E+00  0.00E+00  4.86E-07  1.52E-07       NaN  0.00000
     58.  172.414  5.00E-07  1.68E-07  0.00E+00  0.00E+00  0.00E+00  0.00E+00  5.00E-07  1.68E-07       NaN  0.00000
     60.  166.667  5.17E-07  1.86E-07  0.00E+00  0.00E+00  0.00E+00  0.00E+00  5.17E-07  1.86E-07       NaN  0.00000
     62.  161.290  5.49E-07  2.11E-07  0.00E+00  0.00E+00  0.00E+00  0.00E+00  5.49E-07  2.11E-07       NaN  0.00000
     64.  156.250  5.79E-07  2.37E-07  0.00E+00  0.00E+00  0.00E+00  0.00E+00  5.79E-07  2.37E-07       NaN  0.00000
     66.  151.515  6.03E-07  2.63E-07  0.00E+00  0.00E+00  0.00E+00  0.00E+00  6.03E-07  2.63E-07       NaN  0.00000
     68.  147.059  6.40E-07  2.96E-07  0.00E+00  0.00E+00  0.00E+00  0.00E+00  6.40E-07  2.96E-07       NaN  0.00000
     70.  142.857  6.69E-07  3.28E-07  0.00E+00  0.00E+00  0.00E+00  0.00E+00  6.69E-07  3.28E-07       NaN  0.00000
     72.  138.889  7.35E-07  3.81E-07  0.00E+00  0.00E+00  0.00E+00  0.00E+00  7.35E-07  3.81E-07       NaN  0.00000
     74.  135.135  7.82E-07  4.28E-07  0.00E+00  0.00E+00  0.00E+00  0.00E+00  7.82E-07  4.28E-07       NaN  0.00000
     76.  131.579  7.97E-07  4.60E-07  0.00E+00  0.00E+00  0.00E+00  0.00E+00  7.97E-07  4.60E-07       NaN  0.00000
     78.  128.205  8.33E-07  5.07E-07  0.00E+00  0.00E+00  0.00E+00  0.00E+00  8.33E-07  5.07E-07       NaN  0.00000
     80.  125.000  8.82E-07  5.65E-07  0.00E+00  0.00E+00  0.00E+00  0.00E+00  8.82E-07  5.65E-07       NaN  0.00000
     82.  121.951  8.97E-07  6.03E-07  0.00E+00  0.00E+00  0.00E+00  0.00E+00  8.97E-07  6.03E-07       NaN  0.00000
     84.  119.048  9.03E-07  6.37E-07  0.00E+00  0.00E+00  0.00E+00  0.00E+00  9.03E-07  6.37E-07       NaN  0.00000
     86.  116.279  9.62E-07  7.11E-07  0.00E+00  0.00E+00  0.00E+00  0.00E+00  9.62E-07  7.11E-07       NaN  0.00000
     88.  113.636  1.07E-06  8.26E-07  0.00E+00  0.00E+00  0.00E+00  0.00E+00  1.07E-06  8.26E-07       NaN  0.00000
     90.  111.111  1.08E-06  8.75E-07  0.00E+00  0.00E+00  0.00E+00  0.00E+00  1.08E-06  8.75E-07       NaN  0.00000
     92.  108.696  1.12E-06  9.49E-07  0.00E+00  0.00E+00  0.00E+00  0.00E+00  1.12E-06  9.49E-07       NaN  0.00000
     94.  106.383  1.15E-06  1.01E-06  0.00E+00  0.00E+00  0.00E+00  0.00E+00  1.15E-06  1.01E-06       NaN  0.00000
     96.  104.167  1.16E-06  1.07E-06  0.00E+00  0.00E+00  0.00E+00  0.00E+00  1.16E-06  1.07E-06       NaN  0.00000
     98.  102.041  1.24E-06  1.19E-06  0.00E+00  0.00E+00  0.00E+00  0.00E+00  1.24E-06  1.19E-06       NaN  0.00000
    100.  100.000  1.35E-06  1.35E-06  0.00E+00  0.00E+00  0.00E+00  0.00E+00  1.35E-06  1.35E-06       NaN  0.00000
  iv          105
1                                             RADIANCE(WATTS/CM2-STER-XXX)
0  FREQ   WAVLEN    PATH THERMAL      SURFACE EMISSION    SURFACE REFLECTED     TOTAL RADIANCE   INTEGRAL    TOTAL
  (CM-1) (MICRN)    (CM-1)   (MICRN)    (CM-1)   (MICRN)    (CM-1)   (MICRN)    (CM-1)   (MICRN)    (CM-1)   TRANS

    102.   98.039  1.34E-06  1.39E-06  0.00E+00  0.00E+00  0.00E+00  0.00E+00  1.34E-06  1.39E-06       NaN  0.00000
    104.   96.154  1.38E-06  1.49E-06  0.00E+00  0.00E+00  0.00E+00  0.00E+00  1.38E-06  1.49E-06       NaN  0.00000
    106.   94.340  1.44E-06  1.62E-06  0.00E+00  0.00E+00  0.00E+00  0.00E+00  1.44E-06  1.62E-06       NaN  0.00000
    108.   92.593  1.40E-06  1.63E-06  0.00E+00  0.00E+00  0.00E+00  0.00E+00  1.40E-06  1.63E-06       NaN  0.00000
    110.   90.909  1.44E-06  1.74E-06  0.00E+00  0.00E+00  0.00E+00  0.00E+00  1.44E-06  1.74E-06       NaN  0.00000
    112.   89.286  1.48E-06  1.86E-06  0.00E+00  0.00E+00  0.00E+00  0.00E+00  1.48E-06  1.86E-06       NaN  0.00000
    114.   87.719  1.47E-06  1.91E-06  0.00E+00  0.00E+00  0.00E+00  0.00E+00  1.47E-06  1.91E-06       NaN  0.00000
    116.   86.207  1.53E-06  2.05E-06  0.00E+00  0.00E+00  0.00E+00  0.00E+00  1.53E-06  2.05E-06       NaN  0.00000
    118.   84.746  1.60E-06  2.23E-06  0.00E+00  0.00E+00  0.00E+00  0.00E+00  1.60E-06  2.23E-06       NaN  0.00000
    120.   83.333  1.73E-06  2.49E-06  0.00E+00  0.00E+00  0.00E+00  0.00E+00  1.73E-06  2.49E-06       NaN  0.00000
    122.   81.967  1.81E-06  2.69E-06  0.00E+00  0.00E+00  0.00E+00  0.00E+00  1.81E-06  2.69E-06       NaN  0.00000
    124.   80.645  1.74E-06  2.68E-06  0.00E+00  0.00E+00  0.00E+00  0.00E+00  1.74E-06  2.68E-06       NaN  0.00000
    126.   79.365  1.86E-06  2.95E-06  0.00E+00  0.00E+00  0.00E+00  0.00E+00  1.86E-06  2.95E-06       NaN  0.00000
    128.   78.125  1.87E-06  3.06E-06  0.00E+00  0.00E+00  0.00E+00  0.00E+00  1.87E-06  3.06E-06       NaN  0.00000
    130.   76.923  1.84E-06  3.11E-06  0.00E+00  0.00E+00  0.00E+00  0.00E+00  1.84E-06  3.11E-06       NaN  0.00000
    132.   75.758  2.03E-06  3.55E-06  0.00E+00  0.00E+00  0.00E+00  0.00E+00  2.03E-06  3.55E-06       NaN  0.00000
    134.   74.627  2.00E-06  3.60E-06  0.00E+00  0.00E+00  0.00E+00  0.00E+00  2.00E-06  3.60E-06       NaN  0.00000
    136.   73.529  1.92E-06  3.55E-06  0.00E+00  0.00E+00  0.00E+00  0.00E+00  1.92E-06  3.55E-06       NaN  0.00000
    138.   72.464  2.08E-06  3.96E-06  0.00E+00  0.00E+00  0.00E+00  0.00E+00  2.08E-06  3.96E-06       NaN  0.00000
    140.   71.429  2.23E-06  4.37E-06  0.00E+00  0.00E+00  0.00E+00  0.00E+00  2.23E-06  4.37E-06       NaN  0.00000
    142.   70.423  2.12E-06  4.28E-06  0.00E+00  0.00E+00  0.00E+00  0.00E+00  2.12E-06  4.28E-06       NaN  0.00000
    144.   69.444  2.07E-06  4.28E-06  0.00E+00  0.00E+00  0.00E+00  0.00E+00  2.07E-06  4.28E-06       NaN  0.00000
    146.   68.493  2.11E-06  4.50E-06  0.00E+00  0.00E+00  0.00E+00  0.00E+00  2.11E-06  4.50E-06       NaN  0.00000
    148.   67.568  2.30E-06  5.04E-06  0.00E+00  0.00E+00  0.00E+00  0.00E+00  2.30E-06  5.04E-06       NaN  0.00000
    150.   66.667  2.57E-06  5.79E-06  0.00E+00  0.00E+00  0.00E+00  0.00E+00  2.57E-06  5.79E-06       NaN  0.00000
    152.   65.789  2.58E-06  5.97E-06  0.00E+00  0.00E+00  0.00E+00  0.00E+00  2.58E-06  5.97E-06       NaN  0.00000
    154.   64.935  2.45E-06  5.80E-06  0.00E+00  0.00E+00  0.00E+00  0.00E+00  2.45E-06  5.80E-06       NaN  0.00000
    156.   64.103  2.44E-06  5.94E-06  0.00E+00  0.00E+00  0.00E+00  0.00E+00  2.44E-06  5.94E-06       NaN  0.00000
    158.   63.291  2.54E-06  6.34E-06  0.00E+00  0.00E+00  0.00E+00  0.00E+00  2.54E-06  6.34E-06       NaN  0.00000
    160.   62.500  2.48E-06  6.35E-06  0.00E+00  0.00E+00  0.00E+00  0.00E+00  2.48E-06  6.35E-06       NaN  0.00000
    162.   61.728  2.48E-06  6.50E-06  0.00E+00  0.00E+00  0.00E+00  0.00E+00  2.48E-06  6.50E-06       NaN  0.00000
    164.   60.976  2.51E-06  6.76E-06  0.00E+00  0.00E+00  0.00E+00  0.00E+00  2.51E-06  6.76E-06       NaN  0.00000
    166.   60.241  2.61E-06  7.18E-06  0.00E+00  0.00E+00  0.00E+00  0.00E+00  2.61E-06  7.18E-06       NaN  0.00000
    168.   59.524  2.71E-06  7.65E-06  0.00E+00  0.00E+00  0.00E+00  0.00E+00  2.71E-06  7.65E-06       NaN  0.00000
    170.   58.824  2.90E-06  8.38E-06  0.00E+00  0.00E+00  0.00E+00  0.00E+00  2.90E-06  8.38E-06       NaN  0.00000
    172.   58.140  2.87E-06  8.48E-06  0.00E+00  0.00E+00  0.00E+00  0.00E+00  2.87E-06  8.48E-06       NaN  0.00000
    174.   57.471  2.88E-06  8.72E-06  0.00E+00  0.00E+00  0.00E+00  0.00E+00  2.88E-06  8.72E-06       NaN  0.00000
    176.   56.818  2.96E-06  9.18E-06  0.00E+00  0.00E+00  0.00E+00  0.00E+00  2.96E-06  9.18E-06       NaN  0.00000
    178.   56.180  3.03E-06  9.58E-06  0.00E+00  0.00E+00  0.00E+00  0.00E+00  3.03E-06  9.58E-06       NaN  0.00000
    180.   55.556  2.94E-06  9.51E-06  0.00E+00  0.00E+00  0.00E+00  0.00E+00  2.94E-06  9.51E-06       NaN  0.00000
    182.   54.945  2.92E-06  9.66E-06  0.00E+00  0.00E+00  0.00E+00  0.00E+00  2.92E-06  9.66E-06       NaN  0.00000
    184.   54.348  2.91E-06  9.87E-06  0.00E+00  0.00E+00  0.00E+00  0.00E+00  2.91E-06  9.87E-06       NaN  0.00000
    186.   53.763  2.98E-06  1.03E-05  0.00E+00  0.00E+00  0.00E+00  0.00E+00  2.98E-06  1.03E-05       NaN  0.00000
    188.   53.191  3.11E-06  1.10E-05  0.00E+00  0.00E+00  0.00E+00  0.00E+00  3.11E-06  1.10E-05       NaN  0.00000
    190.   52.632  3.06E-06  1.11E-05  0.00E+00  0.00E+00  0.00E+00  0.00E+00  3.06E-06  1.11E-05       NaN  0.00000
    192.   52.083  3.12E-06  1.15E-05  0.00E+00  0.00E+00  0.00E+00  0.00E+00  3.12E-06  1.15E-05       NaN  0.00000
    194.   51.546  3.21E-06  1.21E-05  0.00E+00  0.00E+00  0.00E+00  0.00E+00  3.21E-06  1.21E-05       NaN  0.00000
    196.   51.020  3.21E-06  1.23E-05  0.00E+00  0.00E+00  0.00E+00  0.00E+00  3.21E-06  1.23E-05       NaN  0.00000
    198.   50.505  3.20E-06  1.25E-05  0.00E+00  0.00E+00  0.00E+00  0.00E+00  3.20E-06  1.25E-05       NaN  0.00000
    200.   50.000  3.32E-06  1.33E-05  0.00E+00  0.00E+00  0.00E+00  0.00E+00  3.32E-06  1.33E-05       NaN  0.00000
  iv          205
1                                             RADIANCE(WATTS/CM2-STER-XXX)
0  FREQ   WAVLEN    PATH THERMAL      SURFACE EMISSION    SURFACE REFLECTED     TOTAL RADIANCE   INTEGRAL    TOTAL
  (CM-1) (MICRN)    (CM-1)   (MICRN)    (CM-1)   (MICRN)    (CM-1)   (MICRN)    (CM-1)   (MICRN)    (CM-1)   TRANS

    202.   49.505  3.76E-06  1.54E-05  0.00E+00  0.00E+00  0.00E+00  0.00E+00  3.76E-06  1.54E-05       NaN  0.00000
    204.   49.020  3.60E-06  1.50E-05  0.00E+00  0.00E+00  0.00E+00  0.00E+00  3.60E-06  1.50E-05       NaN  0.00000
    206.   48.544  3.38E-06  1.43E-05  0.00E+00  0.00E+00  0.00E+00  0.00E+00  3.38E-06  1.43E-05       NaN  0.00000
    208.   48.077  3.66E-06  1.58E-05  0.00E+00  0.00E+00  0.00E+00  0.00E+00  3.66E-06  1.58E-05       NaN  0.00000
    210.   47.619  3.52E-06  1.55E-05  0.00E+00  0.00E+00  0.00E+00  0.00E+00  3.52E-06  1.55E-05       NaN  0.00000
    212.   47.170  3.49E-06  1.57E-05  0.00E+00  0.00E+00  0.00E+00  0.00E+00  3.49E-06  1.57E-05       NaN  0.00000
    214.   46.729  3.65E-06  1.67E-05  0.00E+00  0.00E+00  0.00E+00  0.00E+00  3.65E-06  1.67E-05       NaN  0.00000
    216.   46.296  3.60E-06  1.68E-05  0.00E+00  0.00E+00  0.00E+00  0.00E+00  3.60E-06  1.68E-05       NaN  0.00000
    218.   45.872  3.55E-06  1.69E-05  0.00E+00  0.00E+00  0.00E+00  0.00E+00  3.55E-06  1.69E-05       NaN  0.00000
    220.   45.455  3.66E-06  1.77E-05  0.00E+00  0.00E+00  0.00E+00  0.00E+00  3.66E-06  1.77E-05       NaN  0.00000
    222.   45.045  3.87E-06  1.91E-05  0.00E+00  0.00E+00  0.00E+00  0.00E+00  3.87E-06  1.91E-05       NaN  0.00000
    224.   44.643  3.86E-06  1.94E-05  0.00E+00  0.00E+00  0.00E+00  0.00E+00  3.86E-06  1.94E-05       NaN  0.00000
    226.   44.248  4.10E-06  2.10E-05  0.00E+00  0.00E+00  0.00E+00  0.00E+00  4.10E-06  2.10E-05       NaN  0.00000
    228.   43.860  4.15E-06  2.16E-05  0.00E+00  0.00E+00  0.00E+00  0.00E+00  4.15E-06  2.16E-05       NaN  0.00000
    230.   43.478  3.84E-06  2.03E-05  0.00E+00  0.00E+00  0.00E+00  0.00E+00  3.84E-06  2.03E-05       NaN  0.00000
    232.   43.103  3.85E-06  2.07E-05  0.00E+00  0.00E+00  0.00E+00  0.00E+00  3.85E-06  2.07E-05       NaN  0.00000
    234.   42.735  3.90E-06  2.14E-05  0.00E+00  0.00E+00  0.00E+00  0.00E+00  3.90E-06  2.14E-05       NaN  0.00000
    236.   42.373  3.96E-06  2.20E-05  0.00E+00  0.00E+00  0.00E+00  0.00E+00  3.96E-06  2.20E-05       NaN  0.00000
    238.   42.017  4.01E-06  2.27E-05  0.00E+00  0.00E+00  0.00E+00  0.00E+00  4.01E-06  2.27E-05       NaN  0.00000
    240.   41.667  4.03E-06  2.32E-05  0.00E+00  0.00E+00  0.00E+00  0.00E+00  4.03E-06  2.32E-05       NaN  0.00000
    242.   41.322  4.03E-06  2.36E-05  0.00E+00  0.00E+00  0.00E+00  0.00E+00  4.03E-06  2.36E-05       NaN  0.00000
    244.   40.984  4.19E-06  2.50E-05  0.00E+00  0.00E+00  0.00E+00  0.00E+00  4.19E-06  2.50E-05       NaN  0.00000
    246.   40.650  4.41E-06  2.67E-05  0.00E+00  0.00E+00  0.00E+00  0.00E+00  4.41E-06  2.67E-05       NaN  0.00000
    248.   40.323  4.38E-06  2.69E-05  0.00E+00  0.00E+00  0.00E+00  0.00E+00  4.38E-06  2.69E-05       NaN  0.00000
    250.   40.000  4.14E-06  2.59E-05  0.00E+00  0.00E+00  0.00E+00  0.00E+00  4.14E-06  2.59E-05       NaN  0.00000
    252.   39.683  4.30E-06  2.73E-05  0.00E+00  0.00E+00  0.00E+00  0.00E+00  4.30E-06  2.73E-05       NaN  0.00000
    254.   39.370  4.61E-06  2.98E-05  0.00E+00  0.00E+00  0.00E+00  0.00E+00  4.61E-06  2.98E-05       NaN  0.00000
    256.   39.062  4.31E-06  2.82E-05  0.00E+00  0.00E+00  0.00E+00  0.00E+00  4.31E-06  2.82E-05       NaN  0.00000
    258.   38.760  4.29E-06  2.86E-05  0.00E+00  0.00E+00  0.00E+00  0.00E+00  4.29E-06  2.86E-05       NaN  0.00000
    260.   38.462  4.39E-06  2.97E-05  0.00E+00  0.00E+00  0.00E+00  0.00E+00  4.39E-06  2.97E-05       NaN  0.00000
    262.   38.168  4.44E-06  3.04E-05  0.00E+00  0.00E+00  0.00E+00  0.00E+00  4.44E-06  3.04E-05       NaN  0.00000
    264.   37.879  4.46E-06  3.11E-05  0.00E+00  0.00E+00  0.00E+00  0.00E+00  4.46E-06  3.11E-05       NaN  0.00000
    266.   37.594  4.47E-06  3.16E-05  0.00E+00  0.00E+00  0.00E+00  0.00E+00  4.47E-06  3.16E-05       NaN  0.00000
    268.   37.313  4.50E-06  3.23E-05  0.00E+00  0.00E+00  0.00E+00  0.00E+00  4.50E-06  3.23E-05       NaN  0.00000
    270.   37.037  4.59E-06  3.35E-05  0.00E+00  0.00E+00  0.00E+00  0.00E+00  4.59E-06  3.35E-05       NaN  0.00000
    272.   36.765  4.61E-06  3.41E-05  0.00E+00  0.00E+00  0.00E+00  0.00E+00  4.61E-06  3.41E-05       NaN  0.00000
    274.   36.496  4.59E-06  3.45E-05  0.00E+00  0.00E+00  0.00E+00  0.00E+00  4.59E-06  3.45E-05       NaN  0.00000
    276.   36.232  4.67E-06  3.56E-05  0.00E+00  0.00E+00  0.00E+00  0.00E+00  4.67E-06  3.56E-05       NaN  0.00000
    278.   35.971  4.93E-06  3.81E-05  0.00E+00  0.00E+00  0.00E+00  0.00E+00  4.93E-06  3.81E-05       NaN  0.00000
    280.   35.714  4.92E-06  3.86E-05  0.00E+00  0.00E+00  0.00E+00  0.00E+00  4.92E-06  3.86E-05       NaN  0.00000
    282.   35.461  4.83E-06  3.84E-05  0.00E+00  0.00E+00  0.00E+00  0.00E+00  4.83E-06  3.84E-05       NaN  0.00000
    284.   35.211  4.70E-06  3.79E-05  0.00E+00  0.00E+00  0.00E+00  0.00E+00  4.70E-06  3.79E-05       NaN  0.00000
    286.   34.965  4.72E-06  3.86E-05  0.00E+00  0.00E+00  0.00E+00  0.00E+00  4.72E-06  3.86E-05       NaN  0.00000
    288.   34.722  4.77E-06  3.96E-05  0.00E+00  0.00E+00  0.00E+00  0.00E+00  4.77E-06  3.96E-05       NaN  0.00000
    290.   34.483  4.76E-06  4.01E-05  0.00E+00  0.00E+00  0.00E+00  0.00E+00  4.76E-06  4.01E-05       NaN  0.00000
    292.   34.247  4.86E-06  4.14E-05  0.00E+00  0.00E+00  0.00E+00  0.00E+00  4.86E-06  4.14E-05       NaN  0.00000
    294.   34.014  5.00E-06  4.32E-05  0.00E+00  0.00E+00  0.00E+00  0.00E+00  5.00E-06  4.32E-05       NaN  0.00000
    296.   33.784  5.01E-06  4.39E-05  0.00E+00  0.00E+00  0.00E+00  0.00E+00  5.01E-06  4.39E-05       NaN  0.00000
    298.   33.557  4.98E-06  4.42E-05  0.00E+00  0.00E+00  0.00E+00  0.00E+00  4.98E-06  4.42E-05       NaN  0.00000
    300.   33.333  4.90E-06  4.41E-05  0.00E+00  0.00E+00  0.00E+00  0.00E+00  4.90E-06  4.41E-05       NaN  0.00000
  iv          305
1                                             RADIANCE(WATTS/CM2-STER-XXX)
0  FREQ   WAVLEN    PATH THERMAL      SURFACE EMISSION    SURFACE REFLECTED     TOTAL RADIANCE   INTEGRAL    TOTAL
  (CM-1) (MICRN)    (CM-1)   (MICRN)    (CM-1)   (MICRN)    (CM-1)   (MICRN)    (CM-1)   (MICRN)    (CM-1)   TRANS

    302.   33.113  5.12E-06  4.67E-05  0.00E+00  0.00E+00  0.00E+00  0.00E+00  5.12E-06  4.67E-05       NaN  0.00000
    304.   32.895  5.07E-06  4.69E-05  0.00E+00  0.00E+00  0.00E+00  0.00E+00  5.07E-06  4.69E-05       NaN  0.00000
    306.   32.680  5.02E-06  4.70E-05  0.00E+00  0.00E+00  0.00E+00  0.00E+00  5.02E-06  4.70E-05       NaN  0.00000
    308.   32.468  5.18E-06  4.92E-05  0.00E+00  0.00E+00  0.00E+00  0.00E+00  5.18E-06  4.92E-05       NaN  0.00000
    310.   32.258  5.25E-06  5.05E-05  0.00E+00  0.00E+00  0.00E+00  0.00E+00  5.25E-06  5.05E-05       NaN  0.00000
    312.   32.051  5.29E-06  5.15E-05  0.00E+00  0.00E+00  0.00E+00  0.00E+00  5.29E-06  5.15E-05       NaN  0.00000
    314.   31.847  5.20E-06  5.13E-05  0.00E+00  0.00E+00  0.00E+00  0.00E+00  5.20E-06  5.13E-05       NaN  0.00000
    316.   31.646  5.22E-06  5.21E-05  0.00E+00  0.00E+00  0.00E+00  0.00E+00  5.22E-06  5.21E-05       NaN  0.00000
    318.   31.447  5.39E-06  5.45E-05  0.00E+00  0.00E+00  0.00E+00  0.00E+00  5.39E-06  5.45E-05       NaN  0.00000
    320.   31.250  5.38E-06  5.51E-05  0.00E+00  0.00E+00  0.00E+00  0.00E+00  5.38E-06  5.51E-05       NaN  0.00000
    322.   31.056  5.22E-06  5.41E-05  0.00E+00  0.00E+00  0.00E+00  0.00E+00  5.22E-06  5.41E-05       NaN  0.00000
    324.   30.864  5.28E-06  5.54E-05  0.00E+00  0.00E+00  0.00E+00  0.00E+00  5.28E-06  5.54E-05       NaN  0.00000
    326.   30.675  5.24E-06  5.57E-05  0.00E+00  0.00E+00  0.00E+00  0.00E+00  5.24E-06  5.57E-05       NaN  0.00000
    328.   30.488  5.37E-06  5.77E-05  0.00E+00  0.00E+00  0.00E+00  0.00E+00  5.37E-06  5.77E-05       NaN  0.00000
    330.   30.303  5.46E-06  5.95E-05  0.00E+00  0.00E+00  0.00E+00  0.00E+00  5.46E-06  5.95E-05       NaN  0.00000
    332.   30.120  5.51E-06  6.07E-05  0.00E+00  0.00E+00  0.00E+00  0.00E+00  5.51E-06  6.07E-05       NaN  0.00000
    334.   29.940  5.38E-06  6.01E-05  0.00E+00  0.00E+00  0.00E+00  0.00E+00  5.38E-06  6.01E-05       NaN  0.00000
    336.   29.762  5.34E-06  6.03E-05  0.00E+00  0.00E+00  0.00E+00  0.00E+00  5.34E-06  6.03E-05       NaN  0.00000
    338.   29.586  5.55E-06  6.34E-05  0.00E+00  0.00E+00  0.00E+00  0.00E+00  5.55E-06  6.34E-05       NaN  0.00000
    340.   29.412  5.54E-06  6.41E-05  0.00E+00  0.00E+00  0.00E+00  0.00E+00  5.54E-06  6.41E-05       NaN  0.00000
    342.   29.240  5.56E-06  6.51E-05  0.00E+00  0.00E+00  0.00E+00  0.00E+00  5.56E-06  6.51E-05       NaN  0.00000
    344.   29.070  5.67E-06  6.71E-05  0.00E+00  0.00E+00  0.00E+00  0.00E+00  5.67E-06  6.71E-05       NaN  0.00000
    346.   28.902  5.72E-06  6.85E-05  0.00E+00  0.00E+00  0.00E+00  0.00E+00  5.72E-06  6.85E-05       NaN  0.00000
    348.   28.736  5.64E-06  6.83E-05  0.00E+00  0.00E+00  0.00E+00  0.00E+00  5.64E-06  6.83E-05       NaN  0.00000
    350.   28.571  5.49E-06  6.72E-05  0.00E+00  0.00E+00  0.00E+00  0.00E+00  5.49E-06  6.72E-05       NaN  0.00000
    352.   28.409  5.53E-06  6.85E-05  0.00E+00  0.00E+00  0.00E+00  0.00E+00  5.53E-06  6.85E-05       NaN  0.00000
    354.   28.249  5.53E-06  6.93E-05  0.00E+00  0.00E+00  0.00E+00  0.00E+00  5.53E-06  6.93E-05       NaN  0.00000
    356.   28.090  5.51E-06  6.98E-05  0.00E+00  0.00E+00  0.00E+00  0.00E+00  5.51E-06  6.98E-05       NaN  0.00000
    358.   27.933  5.58E-06  7.15E-05  0.00E+00  0.00E+00  0.00E+00  0.00E+00  5.58E-06  7.15E-05       NaN  0.00000
    360.   27.778  5.94E-06  7.70E-05  0.00E+00  0.00E+00  0.00E+00  0.00E+00  5.94E-06  7.70E-05       NaN  0.00000
    362.   27.624  6.13E-06  8.03E-05  0.00E+00  0.00E+00  0.00E+00  0.00E+00  6.13E-06  8.03E-05       NaN  0.00000
    364.   27.473  6.20E-06  8.21E-05  0.00E+00  0.00E+00  0.00E+00  0.00E+00  6.20E-06  8.21E-05       NaN  0.00000
    366.   27.322  6.25E-06  8.37E-05  0.00E+00  0.00E+00  0.00E+00  0.00E+00  6.25E-06  8.37E-05       NaN  0.00000
    368.   27.174  6.01E-06  8.13E-05  0.00E+00  0.00E+00  0.00E+00  0.00E+00  6.01E-06  8.13E-05       NaN  0.00000
    370.   27.027  5.83E-06  7.99E-05  0.00E+00  0.00E+00  0.00E+00  0.00E+00  5.83E-06  7.99E-05       NaN  0.00000
    372.   26.882  6.04E-06  8.36E-05  0.00E+00  0.00E+00  0.00E+00  0.00E+00  6.04E-06  8.36E-05       NaN  0.00000
    374.   26.738  5.86E-06  8.19E-05  0.00E+00  0.00E+00  0.00E+00  0.00E+00  5.86E-06  8.19E-05       NaN  0.00000
    376.   26.596  5.85E-06  8.27E-05  0.00E+00  0.00E+00  0.00E+00  0.00E+00  5.85E-06  8.27E-05       NaN  0.00000
    378.   26.455  6.18E-06  8.84E-05  0.00E+00  0.00E+00  0.00E+00  0.00E+00  6.18E-06  8.84E-05       NaN  0.00000
    380.   26.316  6.36E-06  9.18E-05  0.00E+00  0.00E+00  0.00E+00  0.00E+00  6.36E-06  9.18E-05       NaN  0.00000
    382.   26.178  6.31E-06  9.21E-05  0.00E+00  0.00E+00  0.00E+00  0.00E+00  6.31E-06  9.21E-05       NaN  0.00000
    384.   26.042  5.90E-06  8.70E-05  0.00E+00  0.00E+00  0.00E+00  0.00E+00  5.90E-06  8.70E-05       NaN  0.00000
    386.   25.907  5.90E-06  8.79E-05  0.00E+00  0.00E+00  0.00E+00  0.00E+00  5.90E-06  8.79E-05       NaN  0.00000
    388.   25.773  6.41E-06  9.65E-05  0.00E+00  0.00E+00  0.00E+00  0.00E+00  6.41E-06  9.65E-05       NaN  0.00000
    390.   25.641  6.59E-06  1.00E-04  0.00E+00  0.00E+00  0.00E+00  0.00E+00  6.59E-06  1.00E-04       NaN  0.00000
    392.   25.510  6.53E-06  1.00E-04  0.00E+00  0.00E+00  0.00E+00  0.00E+00  6.53E-06  1.00E-04       NaN  0.00000
    394.   25.381  6.19E-06  9.61E-05  0.00E+00  0.00E+00  0.00E+00  0.00E+00  6.19E-06  9.61E-05       NaN  0.00000
    396.   25.253  5.84E-06  9.15E-05  0.00E+00  0.00E+00  0.00E+00  0.00E+00  5.84E-06  9.15E-05       NaN  0.00000
    398.   25.126  5.78E-06  9.16E-05  0.00E+00  0.00E+00  0.00E+00  0.00E+00  5.78E-06  9.16E-05       NaN  0.00000
    400.   25.000  6.13E-06  9.81E-05  0.00E+00  0.00E+00  0.00E+00  0.00E+00  6.13E-06  9.81E-05       NaN  0.00000
  iv          405
1                                             RADIANCE(WATTS/CM2-STER-XXX)
0  FREQ   WAVLEN    PATH THERMAL      SURFACE EMISSION    SURFACE REFLECTED     TOTAL RADIANCE   INTEGRAL    TOTAL
  (CM-1) (MICRN)    (CM-1)   (MICRN)    (CM-1)   (MICRN)    (CM-1)   (MICRN)    (CM-1)   (MICRN)    (CM-1)   TRANS

    402.   24.876  6.62E-06  1.07E-04  0.00E+00  0.00E+00  0.00E+00  0.00E+00  6.62E-06  1.07E-04       NaN  0.00000
    404.   24.752  6.77E-06  1.10E-04  0.00E+00  0.00E+00  0.00E+00  0.00E+00  6.77E-06  1.10E-04       NaN  0.00000
    406.   24.631  6.81E-06  1.12E-04  0.00E+00  0.00E+00  0.00E+00  0.00E+00  6.81E-06  1.12E-04       NaN  0.00000
    408.   24.510  6.88E-06  1.15E-04  0.00E+00  0.00E+00  0.00E+00  0.00E+00  6.88E-06  1.15E-04       NaN  0.00000
    410.   24.390  6.90E-06  1.16E-04  0.00E+00  0.00E+00  0.00E+00  0.00E+00  6.90E-06  1.16E-04       NaN  0.00000
    412.   24.272  6.90E-06  1.17E-04  0.00E+00  0.00E+00  0.00E+00  0.00E+00  6.90E-06  1.17E-04       NaN  0.00000
    414.   24.155  6.81E-06  1.17E-04  0.00E+00  0.00E+00  0.00E+00  0.00E+00  6.81E-06  1.17E-04       NaN  0.00000
    416.   24.038  6.51E-06  1.13E-04  0.00E+00  0.00E+00  0.00E+00  0.00E+00  6.51E-06  1.13E-04       NaN  0.00000
    418.   23.923  5.95E-06  1.04E-04  0.00E+00  0.00E+00  0.00E+00  0.00E+00  5.95E-06  1.04E-04       NaN  0.00000
    420.   23.810  5.94E-06  1.05E-04  0.00E+00  0.00E+00  0.00E+00  0.00E+00  5.94E-06  1.05E-04       NaN  0.00000
    422.   23.697  6.40E-06  1.14E-04  0.00E+00  0.00E+00  0.00E+00  0.00E+00  6.40E-06  1.14E-04       NaN  0.00000
    424.   23.585  6.53E-06  1.17E-04  0.00E+00  0.00E+00  0.00E+00  0.00E+00  6.53E-06  1.17E-04       NaN  0.00000
    426.   23.474  6.61E-06  1.20E-04  0.00E+00  0.00E+00  0.00E+00  0.00E+00  6.61E-06  1.20E-04       NaN  0.00000
    428.   23.364  6.89E-06  1.26E-04  0.00E+00  0.00E+00  0.00E+00  0.00E+00  6.89E-06  1.26E-04       NaN  0.00000
    430.   23.256  6.75E-06  1.25E-04  0.00E+00  0.00E+00  0.00E+00  0.00E+00  6.75E-06  1.25E-04       NaN  0.00000
    432.   23.148  6.72E-06  1.25E-04  0.00E+00  0.00E+00  0.00E+00  0.00E+00  6.72E-06  1.25E-04       NaN  0.00000
    434.   23.041  6.92E-06  1.30E-04  0.00E+00  0.00E+00  0.00E+00  0.00E+00  6.92E-06  1.30E-04       NaN  0.00000
    436.   22.936  6.87E-06  1.31E-04  0.00E+00  0.00E+00  0.00E+00  0.00E+00  6.87E-06  1.31E-04       NaN  0.00000
    438.   22.831  7.04E-06  1.35E-04  0.00E+00  0.00E+00  0.00E+00  0.00E+00  7.04E-06  1.35E-04       NaN  0.00000
    440.   22.727  6.83E-06  1.32E-04  0.00E+00  0.00E+00  0.00E+00  0.00E+00  6.83E-06  1.32E-04       NaN  0.00000
    442.   22.624  6.34E-06  1.24E-04  0.00E+00  0.00E+00  0.00E+00  0.00E+00  6.34E-06  1.24E-04       NaN  0.00000
    444.   22.523  6.63E-06  1.31E-04  0.00E+00  0.00E+00  0.00E+00  0.00E+00  6.63E-06  1.31E-04       NaN  0.00000
    446.   22.422  6.93E-06  1.38E-04  0.00E+00  0.00E+00  0.00E+00  0.00E+00  6.93E-06  1.38E-04       NaN  0.00000
    448.   22.321  7.07E-06  1.42E-04  0.00E+00  0.00E+00  0.00E+00  0.00E+00  7.07E-06  1.42E-04       NaN  0.00000
    450.   22.222  7.14E-06  1.45E-04  0.00E+00  0.00E+00  0.00E+00  0.00E+00  7.14E-06  1.45E-04       NaN  0.00000
    452.   22.124  6.93E-06  1.42E-04  0.00E+00  0.00E+00  0.00E+00  0.00E+00  6.93E-06  1.42E-04       NaN  0.00000
    454.   22.026  6.89E-06  1.42E-04  0.00E+00  0.00E+00  0.00E+00  0.00E+00  6.89E-06  1.42E-04       NaN  0.00000
    456.   21.930  6.51E-06  1.35E-04  0.00E+00  0.00E+00  0.00E+00  0.00E+00  6.51E-06  1.35E-04       NaN  0.00000
    458.   21.834  6.24E-06  1.31E-04  0.00E+00  0.00E+00  0.00E+00  0.00E+00  6.24E-06  1.31E-04       NaN  0.00000
    460.   21.739  6.84E-06  1.45E-04  0.00E+00  0.00E+00  0.00E+00  0.00E+00  6.84E-06  1.45E-04       NaN  0.00000
    462.   21.645  7.15E-06  1.53E-04  0.00E+00  0.00E+00  0.00E+00  0.00E+00  7.15E-06  1.53E-04       NaN  0.00000
    464.   21.552  7.24E-06  1.56E-04  0.00E+00  0.00E+00  0.00E+00  0.00E+00  7.24E-06  1.56E-04       NaN  0.00000
    466.   21.459  7.15E-06  1.55E-04  0.00E+00  0.00E+00  0.00E+00  0.00E+00  7.15E-06  1.55E-04       NaN  0.00000
    468.   21.368  7.00E-06  1.53E-04  0.00E+00  0.00E+00  0.00E+00  0.00E+00  7.00E-06  1.53E-04       NaN  0.00000
    470.   21.277  6.88E-06  1.52E-04  0.00E+00  0.00E+00  0.00E+00  0.00E+00  6.88E-06  1.52E-04       NaN  0.00000
    472.   21.186  6.32E-06  1.41E-04  0.00E+00  0.00E+00  0.00E+00  0.00E+00  6.32E-06  1.41E-04       NaN  0.00000
    474.   21.097  6.62E-06  1.49E-04  0.00E+00  0.00E+00  0.00E+00  0.00E+00  6.62E-06  1.49E-04       NaN  0.00000
    476.   21.008  7.18E-06  1.63E-04  0.00E+00  0.00E+00  0.00E+00  0.00E+00  7.18E-06  1.63E-04       NaN  0.00000
    478.   20.921  7.31E-06  1.67E-04  0.00E+00  0.00E+00  0.00E+00  0.00E+00  7.31E-06  1.67E-04       NaN  0.00000
    480.   20.833  7.26E-06  1.67E-04  0.00E+00  0.00E+00  0.00E+00  0.00E+00  7.26E-06  1.67E-04       NaN  0.00000
    482.   20.747  6.92E-06  1.61E-04  0.00E+00  0.00E+00  0.00E+00  0.00E+00  6.92E-06  1.61E-04       NaN  0.00000
    484.   20.661  6.59E-06  1.54E-04  0.00E+00  0.00E+00  0.00E+00  0.00E+00  6.59E-06  1.54E-04       NaN  0.00000
    486.   20.576  7.02E-06  1.66E-04  0.00E+00  0.00E+00  0.00E+00  0.00E+00  7.02E-06  1.66E-04       NaN  0.00000
    488.   20.492  7.33E-06  1.74E-04  0.00E+00  0.00E+00  0.00E+00  0.00E+00  7.33E-06  1.74E-04       NaN  0.00000
    490.   20.408  7.24E-06  1.74E-04  0.00E+00  0.00E+00  0.00E+00  0.00E+00  7.24E-06  1.74E-04       NaN  0.00000
    492.   20.325  6.96E-06  1.69E-04  0.00E+00  0.00E+00  0.00E+00  0.00E+00  6.96E-06  1.69E-04       NaN  0.00000
    494.   20.243  7.19E-06  1.76E-04  0.00E+00  0.00E+00  0.00E+00  0.00E+00  7.19E-06  1.76E-04       NaN  0.00000
    496.   20.161  7.40E-06  1.82E-04  0.00E+00  0.00E+00  0.00E+00  0.00E+00  7.40E-06  1.82E-04       NaN  0.00000
    498.   20.080  7.40E-06  1.84E-04  0.00E+00  0.00E+00  0.00E+00  0.00E+00  7.40E-06  1.84E-04       NaN  0.00000
    500.   20.000  7.18E-06  1.79E-04  0.00E+00  0.00E+00  0.00E+00  0.00E+00  7.18E-06  1.79E-04       NaN  0.00000
  iv          505
1                                             RADIANCE(WATTS/CM2-STER-XXX)
0  FREQ   WAVLEN    PATH THERMAL      SURFACE EMISSION    SURFACE REFLECTED     TOTAL RADIANCE   INTEGRAL    TOTAL
  (CM-1) (MICRN)    (CM-1)   (MICRN)    (CM-1)   (MICRN)    (CM-1)   (MICRN)    (CM-1)   (MICRN)    (CM-1)   TRANS

    502.   19.920  6.78E-06  1.71E-04  0.00E+00  0.00E+00  0.00E+00  0.00E+00  6.78E-06  1.71E-04       NaN  0.00000
    504.   19.841  6.94E-06  1.76E-04  0.00E+00  0.00E+00  0.00E+00  0.00E+00  6.94E-06  1.76E-04       NaN  0.00000
    506.   19.763  6.75E-06  1.73E-04  0.00E+00  0.00E+00  0.00E+00  0.00E+00  6.75E-06  1.73E-04       NaN  0.00000
    508.   19.685  6.89E-06  1.78E-04  0.00E+00  0.00E+00  0.00E+00  0.00E+00  6.89E-06  1.78E-04       NaN  0.00000
    510.   19.608  7.21E-06  1.88E-04  0.00E+00  0.00E+00  0.00E+00  0.00E+00  7.21E-06  1.88E-04       NaN  0.00000
    512.   19.531  7.22E-06  1.89E-04  0.00E+00  0.00E+00  0.00E+00  0.00E+00  7.22E-06  1.89E-04       NaN  0.00000
    514.   19.455  7.27E-06  1.92E-04  0.00E+00  0.00E+00  0.00E+00  0.00E+00  7.27E-06  1.92E-04       NaN  0.00000
    516.   19.380  6.86E-06  1.83E-04  0.00E+00  0.00E+00  0.00E+00  0.00E+00  6.86E-06  1.83E-04       NaN  0.00000
    518.   19.305  6.57E-06  1.76E-04  0.00E+00  0.00E+00  0.00E+00  0.00E+00  6.57E-06  1.76E-04       NaN  0.00000
    520.   19.231  6.82E-06  1.84E-04  0.00E+00  0.00E+00  0.00E+00  0.00E+00  6.82E-06  1.84E-04       NaN  0.00000
    522.   19.157  7.22E-06  1.97E-04  0.00E+00  0.00E+00  0.00E+00  0.00E+00  7.22E-06  1.97E-04       NaN  0.00000
    524.   19.084  7.07E-06  1.94E-04  0.00E+00  0.00E+00  0.00E+00  0.00E+00  7.07E-06  1.94E-04       NaN  0.00000
    526.   19.011  6.78E-06  1.88E-04  0.00E+00  0.00E+00  0.00E+00  0.00E+00  6.78E-06  1.88E-04       NaN  0.00000
    528.   18.939  7.18E-06  2.00E-04  0.00E+00  0.00E+00  0.00E+00  0.00E+00  7.18E-06  2.00E-04       NaN  0.00000
    530.   18.868  7.38E-06  2.07E-04  0.00E+00  0.00E+00  0.00E+00  0.00E+00  7.38E-06  2.07E-04       NaN  0.00000
    532.   18.797  7.39E-06  2.09E-04  0.00E+00  0.00E+00  0.00E+00  0.00E+00  7.39E-06  2.09E-04       NaN  0.00000
    534.   18.727  7.25E-06  2.07E-04  0.00E+00  0.00E+00  0.00E+00  0.00E+00  7.25E-06  2.07E-04       NaN  0.00000
    536.   18.657  7.00E-06  2.01E-04  0.00E+00  0.00E+00  0.00E+00  0.00E+00  7.00E-06  2.01E-04       NaN  0.00000
    538.   18.587  7.22E-06  2.09E-04  0.00E+00  0.00E+00  0.00E+00  0.00E+00  7.22E-06  2.09E-04       NaN  0.00000
    540.   18.519  7.22E-06  2.11E-04  0.00E+00  0.00E+00  0.00E+00  0.00E+00  7.22E-06  2.11E-04       NaN  0.00000
    542.   18.450  7.18E-06  2.11E-04  0.00E+00  0.00E+00  0.00E+00  0.00E+00  7.18E-06  2.11E-04       NaN  0.00000
    544.   18.382  6.98E-06  2.06E-04  0.00E+00  0.00E+00  0.00E+00  0.00E+00  6.98E-06  2.06E-04       NaN  0.00000
    546.   18.315  6.63E-06  1.98E-04  0.00E+00  0.00E+00  0.00E+00  0.00E+00  6.63E-06  1.98E-04       NaN  0.00000
    548.   18.248  6.92E-06  2.08E-04  0.00E+00  0.00E+00  0.00E+00  0.00E+00  6.92E-06  2.08E-04       NaN  0.00000
    550.   18.182  7.07E-06  2.14E-04  0.00E+00  0.00E+00  0.00E+00  0.00E+00  7.07E-06  2.14E-04       NaN  0.00000
    552.   18.116  7.22E-06  2.20E-04  0.00E+00  0.00E+00  0.00E+00  0.00E+00  7.22E-06  2.20E-04       NaN  0.00000
    554.   18.051  7.11E-06  2.18E-04  0.00E+00  0.00E+00  0.00E+00  0.00E+00  7.11E-06  2.18E-04       NaN  0.00000
    556.   17.986  7.10E-06  2.20E-04  0.00E+00  0.00E+00  0.00E+00  0.00E+00  7.10E-06  2.20E-04       NaN  0.00000
    558.   17.921  7.28E-06  2.27E-04  0.00E+00  0.00E+00  0.00E+00  0.00E+00  7.28E-06  2.27E-04       NaN  0.00000
    560.   17.857  7.31E-06  2.29E-04  0.00E+00  0.00E+00  0.00E+00  0.00E+00  7.31E-06  2.29E-04       NaN  0.00000
    562.   17.794  7.11E-06  2.25E-04  0.00E+00  0.00E+00  0.00E+00  0.00E+00  7.11E-06  2.25E-04       NaN  0.00000
    564.   17.730  7.05E-06  2.24E-04  0.00E+00  0.00E+00  0.00E+00  0.00E+00  7.05E-06  2.24E-04       NaN  0.00000
    566.   17.668  6.94E-06  2.22E-04  0.00E+00  0.00E+00  0.00E+00  0.00E+00  6.94E-06  2.22E-04       NaN  0.00000
    568.   17.606  6.59E-06  2.13E-04  0.00E+00  0.00E+00  0.00E+00  0.00E+00  6.59E-06  2.13E-04       NaN  0.00000
    570.   17.544  6.79E-06  2.21E-04  0.00E+00  0.00E+00  0.00E+00  0.00E+00  6.79E-06  2.21E-04       NaN  0.00000
    572.   17.483  7.16E-06  2.34E-04  0.00E+00  0.00E+00  0.00E+00  0.00E+00  7.16E-06  2.34E-04       NaN  0.00000
    574.   17.422  7.13E-06  2.35E-04  0.00E+00  0.00E+00  0.00E+00  0.00E+00  7.13E-06  2.35E-04       NaN  0.00000
    576.   17.361  6.85E-06  2.27E-04  0.00E+00  0.00E+00  0.00E+00  0.00E+00  6.85E-06  2.27E-04       NaN  0.00000
    578.   17.301  7.05E-06  2.36E-04  0.00E+00  0.00E+00  0.00E+00  0.00E+00  7.05E-06  2.36E-04       NaN  0.00000
    580.   17.241  6.90E-06  2.32E-04  0.00E+00  0.00E+00  0.00E+00  0.00E+00  6.90E-06  2.32E-04       NaN  0.00000
    582.   17.182  6.89E-06  2.33E-04  0.00E+00  0.00E+00  0.00E+00  0.00E+00  6.89E-06  2.33E-04       NaN  0.00000
    584.   17.123  7.10E-06  2.42E-04  0.00E+00  0.00E+00  0.00E+00  0.00E+00  7.10E-06  2.42E-04       NaN  0.00000
    586.   17.065  7.11E-06  2.44E-04  0.00E+00  0.00E+00  0.00E+00  0.00E+00  7.11E-06  2.44E-04       NaN  0.00000
    588.   17.007  7.18E-06  2.48E-04  0.00E+00  0.00E+00  0.00E+00  0.00E+00  7.18E-06  2.48E-04       NaN  0.00000
    590.   16.949  6.92E-06  2.41E-04  0.00E+00  0.00E+00  0.00E+00  0.00E+00  6.92E-06  2.41E-04       NaN  0.00000
    592.   16.892  6.52E-06  2.29E-04  0.00E+00  0.00E+00  0.00E+00  0.00E+00  6.52E-06  2.29E-04       NaN  0.00000
    594.   16.835  6.73E-06  2.38E-04  0.00E+00  0.00E+00  0.00E+00  0.00E+00  6.73E-06  2.38E-04       NaN  0.00000
    596.   16.779  6.97E-06  2.47E-04  0.00E+00  0.00E+00  0.00E+00  0.00E+00  6.97E-06  2.47E-04       NaN  0.00000
    598.   16.722  7.08E-06  2.53E-04  0.00E+00  0.00E+00  0.00E+00  0.00E+00  7.08E-06  2.53E-04       NaN  0.00000
    600.   16.667  6.95E-06  2.50E-04  0.00E+00  0.00E+00  0.00E+00  0.00E+00  6.95E-06  2.50E-04       NaN  0.00000
  iv          605
1                                             RADIANCE(WATTS/CM2-STER-XXX)
0  FREQ   WAVLEN    PATH THERMAL      SURFACE EMISSION    SURFACE REFLECTED     TOTAL RADIANCE   INTEGRAL    TOTAL
  (CM-1) (MICRN)    (CM-1)   (MICRN)    (CM-1)   (MICRN)    (CM-1)   (MICRN)    (CM-1)   (MICRN)    (CM-1)   TRANS

    602.   16.611  7.03E-06  2.55E-04  0.00E+00  0.00E+00  0.00E+00  0.00E+00  7.03E-06  2.55E-04       NaN  0.00000
    604.   16.556  7.03E-06  2.56E-04  0.00E+00  0.00E+00  0.00E+00  0.00E+00  7.03E-06  2.56E-04       NaN  0.00000
    606.   16.502  7.08E-06  2.60E-04  0.00E+00  0.00E+00  0.00E+00  0.00E+00  7.08E-06  2.60E-04       NaN  0.00000
    608.   16.447  7.09E-06  2.62E-04  0.00E+00  0.00E+00  0.00E+00  0.00E+00  7.09E-06  2.62E-04       NaN  0.00000
    610.   16.393  7.07E-06  2.63E-04  0.00E+00  0.00E+00  0.00E+00  0.00E+00  7.07E-06  2.63E-04       NaN  0.00000
    612.   16.340  6.92E-06  2.59E-04  0.00E+00  0.00E+00  0.00E+00  0.00E+00  6.92E-06  2.59E-04       NaN  0.00000
    614.   16.287  6.77E-06  2.55E-04  0.00E+00  0.00E+00  0.00E+00  0.00E+00  6.77E-06  2.55E-04       NaN  0.00000
    616.   16.234  6.58E-06  2.50E-04  0.00E+00  0.00E+00  0.00E+00  0.00E+00  6.58E-06  2.50E-04       NaN  0.00000
    618.   16.181  6.82E-06  2.61E-04  0.00E+00  0.00E+00  0.00E+00  0.00E+00  6.82E-06  2.61E-04       NaN  0.00000
    620.   16.129  6.94E-06  2.67E-04  0.00E+00  0.00E+00  0.00E+00  0.00E+00  6.94E-06  2.67E-04       NaN  0.00000
    622.   16.077  6.93E-06  2.68E-04  0.00E+00  0.00E+00  0.00E+00  0.00E+00  6.93E-06  2.68E-04       NaN  0.00000
    624.   16.026  6.75E-06  2.63E-04  0.00E+00  0.00E+00  0.00E+00  0.00E+00  6.75E-06  2.63E-04       NaN  0.00000
    626.   15.974  6.67E-06  2.61E-04  0.00E+00  0.00E+00  0.00E+00  0.00E+00  6.67E-06  2.61E-04       NaN  0.00000
    628.   15.924  6.94E-06  2.74E-04  0.00E+00  0.00E+00  0.00E+00  0.00E+00  6.94E-06  2.74E-04       NaN  0.00000
    630.   15.873  6.96E-06  2.76E-04  0.00E+00  0.00E+00  0.00E+00  0.00E+00  6.96E-06  2.76E-04       NaN  0.00000
    632.   15.823  6.85E-06  2.73E-04  0.00E+00  0.00E+00  0.00E+00  0.00E+00  6.85E-06  2.73E-04       NaN  0.00000
    634.   15.773  6.67E-06  2.68E-04  0.00E+00  0.00E+00  0.00E+00  0.00E+00  6.67E-06  2.68E-04       NaN  0.00000
    636.   15.723  6.60E-06  2.67E-04  0.00E+00  0.00E+00  0.00E+00  0.00E+00  6.60E-06  2.67E-04       NaN  0.00000
    638.   15.674  6.58E-06  2.68E-04  0.00E+00  0.00E+00  0.00E+00  0.00E+00  6.58E-06  2.68E-04       NaN  0.00000
    640.   15.625  6.69E-06  2.74E-04  0.00E+00  0.00E+00  0.00E+00  0.00E+00  6.69E-06  2.74E-04       NaN  0.00000
    642.   15.576  6.76E-06  2.78E-04  0.00E+00  0.00E+00  0.00E+00  0.00E+00  6.76E-06  2.78E-04       NaN  0.00000
    644.   15.528  6.63E-06  2.75E-04  0.00E+00  0.00E+00  0.00E+00  0.00E+00  6.63E-06  2.75E-04       NaN  0.00000
    646.   15.480  6.68E-06  2.79E-04  0.00E+00  0.00E+00  0.00E+00  0.00E+00  6.68E-06  2.79E-04       NaN  0.00000
    648.   15.432  6.81E-06  2.86E-04  0.00E+00  0.00E+00  0.00E+00  0.00E+00  6.81E-06  2.86E-04       NaN  0.00000
    650.   15.385  6.81E-06  2.88E-04  0.00E+00  0.00E+00  0.00E+00  0.00E+00  6.81E-06  2.88E-04       NaN  0.00000
    652.   15.337  6.76E-06  2.87E-04  0.00E+00  0.00E+00  0.00E+00  0.00E+00  6.76E-06  2.87E-04       NaN  0.00000
    654.   15.291  6.78E-06  2.90E-04  0.00E+00  0.00E+00  0.00E+00  0.00E+00  6.78E-06  2.90E-04       NaN  0.00000
    656.   15.244  6.79E-06  2.92E-04  0.00E+00  0.00E+00  0.00E+00  0.00E+00  6.79E-06  2.92E-04       NaN  0.00000
    658.   15.198  6.54E-06  2.83E-04  0.00E+00  0.00E+00  0.00E+00  0.00E+00  6.54E-06  2.83E-04       NaN  0.00000
    660.   15.152  6.49E-06  2.83E-04  0.00E+00  0.00E+00  0.00E+00  0.00E+00  6.49E-06  2.83E-04       NaN  0.00000
    662.   15.106  6.61E-06  2.90E-04  0.00E+00  0.00E+00  0.00E+00  0.00E+00  6.61E-06  2.90E-04       NaN  0.00000
    664.   15.060  6.62E-06  2.92E-04  0.00E+00  0.00E+00  0.00E+00  0.00E+00  6.62E-06  2.92E-04       NaN  0.00000
    666.   15.015  6.68E-06  2.96E-04  0.00E+00  0.00E+00  0.00E+00  0.00E+00  6.68E-06  2.96E-04       NaN  0.00000
    668.   14.970  6.46E-06  2.88E-04  0.00E+00  0.00E+00  0.00E+00  0.00E+00  6.46E-06  2.88E-04       NaN  0.00000
    670.   14.925  6.44E-06  2.89E-04  0.00E+00  0.00E+00  0.00E+00  0.00E+00  6.44E-06  2.89E-04       NaN  0.00000
    672.   14.881  6.54E-06  2.95E-04  0.00E+00  0.00E+00  0.00E+00  0.00E+00  6.54E-06  2.95E-04       NaN  0.00000
    674.   14.837  6.56E-06  2.98E-04  0.00E+00  0.00E+00  0.00E+00  0.00E+00  6.56E-06  2.98E-04       NaN  0.00000
    676.   14.793  6.63E-06  3.03E-04  0.00E+00  0.00E+00  0.00E+00  0.00E+00  6.63E-06  3.03E-04       NaN  0.00000
    678.   14.749  6.52E-06  3.00E-04  0.00E+00  0.00E+00  0.00E+00  0.00E+00  6.52E-06  3.00E-04       NaN  0.00000
    680.   14.706  6.51E-06  3.01E-04  0.00E+00  0.00E+00  0.00E+00  0.00E+00  6.51E-06  3.01E-04       NaN  0.00000
    682.   14.663  6.58E-06  3.06E-04  0.00E+00  0.00E+00  0.00E+00  0.00E+00  6.58E-06  3.06E-04       NaN  0.00000
    684.   14.620  6.57E-06  3.07E-04  0.00E+00  0.00E+00  0.00E+00  0.00E+00  6.57E-06  3.07E-04       NaN  0.00000
    686.   14.577  6.46E-06  3.04E-04  0.00E+00  0.00E+00  0.00E+00  0.00E+00  6.46E-06  3.04E-04       NaN  0.00000
    688.   14.535  6.22E-06  2.94E-04  0.00E+00  0.00E+00  0.00E+00  0.00E+00  6.22E-06  2.94E-04       NaN  0.00000
    690.   14.493  6.29E-06  3.00E-04  0.00E+00  0.00E+00  0.00E+00  0.00E+00  6.29E-06  3.00E-04       NaN  0.00000
    692.   14.451  6.40E-06  3.07E-04  0.00E+00  0.00E+00  0.00E+00  0.00E+00  6.40E-06  3.07E-04       NaN  0.00000
    694.   14.409  6.24E-06  3.01E-04  0.00E+00  0.00E+00  0.00E+00  0.00E+00  6.24E-06  3.01E-04       NaN  0.00000
    696.   14.368  6.16E-06  2.98E-04  0.00E+00  0.00E+00  0.00E+00  0.00E+00  6.16E-06  2.98E-04       NaN  0.00000
    698.   14.327  6.21E-06  3.02E-04  0.00E+00  0.00E+00  0.00E+00  0.00E+00  6.21E-06  3.02E-04       NaN  0.00000
    700.   14.286  6.38E-06  3.12E-04  0.00E+00  0.00E+00  0.00E+00  0.00E+00  6.38E-06  3.12E-04       NaN  0.00000
  iv          705
1                                             RADIANCE(WATTS/CM2-STER-XXX)
0  FREQ   WAVLEN    PATH THERMAL      SURFACE EMISSION    SURFACE REFLECTED     TOTAL RADIANCE   INTEGRAL    TOTAL
  (CM-1) (MICRN)    (CM-1)   (MICRN)    (CM-1)   (MICRN)    (CM-1)   (MICRN)    (CM-1)   (MICRN)    (CM-1)   TRANS

    702.   14.245  6.39E-06  3.15E-04  0.00E+00  0.00E+00  0.00E+00  0.00E+00  6.39E-06  3.15E-04       NaN  0.00000
    704.   14.205  6.18E-06  3.07E-04  0.00E+00  0.00E+00  0.00E+00  0.00E+00  6.18E-06  3.07E-04       NaN  0.00000
    706.   14.164  6.05E-06  3.01E-04  0.00E+00  0.00E+00  0.00E+00  0.00E+00  6.05E-06  3.01E-04       NaN  0.00000
    708.   14.124  6.18E-06  3.10E-04  0.00E+00  0.00E+00  0.00E+00  0.00E+00  6.18E-06  3.10E-04       NaN  0.00000
    710.   14.085  6.33E-06  3.19E-04  0.00E+00  0.00E+00  0.00E+00  0.00E+00  6.33E-06  3.19E-04       NaN  0.00000
    712.   14.045  6.24E-06  3.16E-04  0.00E+00  0.00E+00  0.00E+00  0.00E+00  6.24E-06  3.16E-04       NaN  0.00000
    714.   14.006  6.18E-06  3.15E-04  0.00E+00  0.00E+00  0.00E+00  0.00E+00  6.18E-06  3.15E-04       NaN  0.00000
    716.   13.966  6.26E-06  3.21E-04  5.89E-44  3.02E-42  0.00E+00  0.00E+00  6.26E-06  3.21E-04       NaN  0.00000
    718.   13.928  6.24E-06  3.22E-04  1.93E-43  9.97E-42  0.00E+00  0.00E+00  6.24E-06  3.22E-04       NaN  0.00000
    720.   13.889  6.23E-06  3.23E-04  3.94E-43  2.04E-41  0.00E+00  0.00E+00  6.23E-06  3.23E-04       NaN  0.00000
    722.   13.850  6.22E-06  3.24E-04  2.68E-42  1.40E-40  0.00E+00  0.00E+00  6.22E-06  3.24E-04       NaN  0.00000
    724.   13.812  6.21E-06  3.25E-04  6.33E-42  3.32E-40  0.00E+00  0.00E+00  6.21E-06  3.25E-04       NaN  0.00000
    726.   13.774  6.19E-06  3.26E-04  3.27E-42  1.72E-40  0.00E+00  0.00E+00  6.19E-06  3.26E-04       NaN  0.00000
    728.   13.736  6.08E-06  3.22E-04  2.94E-43  1.56E-41  0.00E+00  0.00E+00  6.08E-06  3.22E-04       NaN  0.00000
    730.   13.699  5.97E-06  3.18E-04  0.00E+00  0.00E+00  0.00E+00  0.00E+00  5.97E-06  3.18E-04       NaN  0.00000
    732.   13.661  6.03E-06  3.23E-04  1.71E-43  9.16E-42  0.00E+00  0.00E+00  6.03E-06  3.23E-04       NaN  0.00000
    734.   13.624  6.11E-06  3.29E-04  1.25E-42  6.74E-41  0.00E+00  0.00E+00  6.11E-06  3.29E-04       NaN  0.00000
    736.   13.587  6.09E-06  3.30E-04  2.55E-42  1.38E-40  0.00E+00  0.00E+00  6.09E-06  3.30E-04       NaN  0.00000
    738.   13.550  6.07E-06  3.31E-04  1.12E-42  6.09E-41  0.00E+00  0.00E+00  6.07E-06  3.31E-04       NaN  0.00000
    740.   13.514  5.97E-06  3.27E-04  5.18E-44  2.84E-42  0.00E+00  0.00E+00  5.97E-06  3.27E-04       NaN  0.00000
    742.   13.477  5.91E-06  3.25E-04  0.00E+00  0.00E+00  0.00E+00  0.00E+00  5.91E-06  3.25E-04       NaN  0.00000
    744.   13.441  5.92E-06  3.28E-04  0.00E+00  0.00E+00  0.00E+00  0.00E+00  5.92E-06  3.28E-04       NaN  0.00000
    746.   13.405  5.90E-06  3.29E-04  0.00E+00  0.00E+00  0.00E+00  0.00E+00  5.90E-06  3.29E-04       NaN  0.00000
    748.   13.369  5.87E-06  3.28E-04  5.61E-45  3.14E-43  0.00E+00  0.00E+00  5.87E-06  3.28E-04       NaN  0.00000
    750.   13.333  5.91E-06  3.32E-04  1.40E-44  7.88E-43  0.00E+00  0.00E+00  5.91E-06  3.32E-04       NaN  0.00000
    752.   13.298  5.89E-06  3.33E-04  7.01E-45  3.97E-43  0.00E+00  0.00E+00  5.89E-06  3.33E-04       NaN  0.00000
    754.   13.263  5.79E-06  3.29E-04  0.00E+00  0.00E+00  0.00E+00  0.00E+00  5.79E-06  3.29E-04       NaN  0.00000
    756.   13.228  5.81E-06  3.32E-04  1.04E-42  5.92E-41  0.00E+00  0.00E+00  5.81E-06  3.32E-04       NaN  0.00000
    758.   13.193  5.86E-06  3.37E-04  6.54E-42  3.76E-40  0.00E+00  0.00E+00  5.86E-06  3.37E-04       NaN  0.00000
    760.   13.158  5.84E-06  3.37E-04  7.24E-42  4.18E-40  0.00E+00  0.00E+00  5.84E-06  3.37E-04       NaN  0.00000
    762.   13.123  5.83E-06  3.38E-04  2.46E-41  1.43E-39  0.00E+00  0.00E+00  5.83E-06  3.38E-04       NaN  0.00000
    764.   13.089  5.81E-06  3.39E-04  3.97E-41  2.32E-39  0.00E+00  0.00E+00  5.81E-06  3.39E-04       NaN  0.00000
    766.   13.055  5.79E-06  3.40E-04  2.09E-41  1.23E-39  0.00E+00  0.00E+00  5.79E-06  3.40E-04       NaN  0.00000
    768.   13.021  5.72E-06  3.37E-04  3.84E-42  2.26E-40  0.00E+00  0.00E+00  5.72E-06  3.37E-04       NaN  0.00000
    770.   12.987  5.69E-06  3.37E-04  4.01E-43  2.38E-41  0.00E+00  0.00E+00  5.69E-06  3.37E-04       NaN  0.00000
    772.   12.953  5.73E-06  3.41E-04  2.17E-42  1.29E-40  0.00E+00  0.00E+00  5.73E-06  3.41E-04       NaN  0.00000
    774.   12.920  5.70E-06  3.41E-04  1.42E-42  8.48E-41  0.00E+00  0.00E+00  5.70E-06  3.41E-04       NaN  0.00000
    776.   12.887  5.60E-06  3.37E-04  1.82E-44  1.10E-42  0.00E+00  0.00E+00  5.60E-06  3.37E-04       NaN  0.00000
    778.   12.853  5.59E-06  3.38E-04  0.00E+00  0.00E+00  0.00E+00  0.00E+00  5.59E-06  3.38E-04       NaN  0.00000
    780.   12.821  5.63E-06  3.43E-04  1.25E-43  7.59E-42  0.00E+00  0.00E+00  5.63E-06  3.43E-04       NaN  0.00000
    782.   12.788  5.59E-06  3.42E-04  1.47E-43  9.00E-42  0.00E+00  0.00E+00  5.59E-06  3.42E-04       NaN  0.00000
    784.   12.755  5.49E-06  3.37E-04  1.68E-44  1.03E-42  0.00E+00  0.00E+00  5.49E-06  3.37E-04       NaN  0.00000
    786.   12.723  5.55E-06  3.43E-04  4.67E-43  2.88E-41  0.00E+00  0.00E+00  5.55E-06  3.43E-04       NaN  0.00000
    788.   12.690  5.58E-06  3.46E-04  3.73E-42  2.32E-40  0.00E+00  0.00E+00  5.58E-06  3.46E-04       NaN  0.00000
    790.   12.658  5.56E-06  3.47E-04  5.00E-42  3.12E-40  0.00E+00  0.00E+00  5.56E-06  3.47E-04       NaN  0.00000
    792.   12.626  5.51E-06  3.46E-04  1.36E-42  8.53E-41  0.00E+00  0.00E+00  5.51E-06  3.46E-04       NaN  0.00000
    794.   12.594  5.43E-06  3.42E-04  1.40E-45  8.83E-44  0.00E+00  0.00E+00  5.43E-06  3.42E-04       NaN  0.00000
    796.   12.563  5.34E-06  3.38E-04  0.00E+00  0.00E+00  0.00E+00  0.00E+00  5.34E-06  3.38E-04       NaN  0.00000
    798.   12.531  5.29E-06  3.37E-04  0.00E+00  0.00E+00  0.00E+00  0.00E+00  5.29E-06  3.37E-04       NaN  0.00000
    800.   12.500  5.34E-06  3.42E-04  1.40E-45  8.97E-44  0.00E+00  0.00E+00  5.34E-06  3.42E-04       NaN  0.00000
  iv          805
1                                             RADIANCE(WATTS/CM2-STER-XXX)
0  FREQ   WAVLEN    PATH THERMAL      SURFACE EMISSION    SURFACE REFLECTED     TOTAL RADIANCE   INTEGRAL    TOTAL
  (CM-1) (MICRN)    (CM-1)   (MICRN)    (CM-1)   (MICRN)    (CM-1)   (MICRN)    (CM-1)   (MICRN)    (CM-1)   TRANS

    802.   12.469  5.41E-06  3.48E-04  1.40E-45  8.97E-44  0.00E+00  0.00E+00  5.41E-06  3.48E-04       NaN  0.00000
    804.   12.438  5.36E-06  3.47E-04  3.36E-44  2.17E-42  0.00E+00  0.00E+00  5.36E-06  3.47E-04       NaN  0.00000
    806.   12.407  5.36E-06  3.48E-04  1.01E-43  6.55E-42  0.00E+00  0.00E+00  5.36E-06  3.48E-04       NaN  0.00000
    808.   12.376  5.31E-06  3.47E-04  8.39E-43  5.48E-41  0.00E+00  0.00E+00  5.31E-06  3.47E-04       NaN  0.00000
    810.   12.346  5.34E-06  3.50E-04  8.62E-42  5.66E-40  0.00E+00  0.00E+00  5.34E-06  3.50E-04       NaN  0.00000
    812.   12.315  5.33E-06  3.52E-04  1.02E-41  6.74E-40  0.00E+00  0.00E+00  5.33E-06  3.52E-04       NaN  0.00000
    814.   12.285  5.27E-06  3.49E-04  1.70E-42  1.13E-40  0.00E+00  0.00E+00  5.27E-06  3.49E-04       NaN  0.00000
    816.   12.255  5.28E-06  3.51E-04  1.34E-41  8.94E-40  0.00E+00  0.00E+00  5.28E-06  3.51E-04       NaN  0.00000
    818.   12.225  5.29E-06  3.54E-04  5.26E-41  3.52E-39  0.00E+00  0.00E+00  5.29E-06  3.54E-04       NaN  0.00000
    820.   12.195  5.27E-06  3.54E-04  7.81E-41  5.25E-39  0.00E+00  0.00E+00  5.27E-06  3.54E-04       NaN  0.00000
    822.   12.165  5.25E-06  3.55E-04  6.05E-41  4.09E-39  0.00E+00  0.00E+00  5.25E-06  3.55E-04       NaN  0.00000
    824.   12.136  5.20E-06  3.53E-04  2.38E-41  1.62E-39  0.00E+00  0.00E+00  5.20E-06  3.53E-04       NaN  0.00000
    826.   12.107  5.17E-06  3.52E-04  3.70E-42  2.53E-40  0.00E+00  0.00E+00  5.17E-06  3.52E-04       NaN  0.00000
    828.   12.077  5.14E-06  3.52E-04  5.31E-42  3.64E-40  0.00E+00  0.00E+00  5.14E-06  3.52E-04       NaN  0.00000
    830.   12.048  5.15E-06  3.55E-04  3.21E-41  2.21E-39  0.00E+00  0.00E+00  5.15E-06  3.55E-04       NaN  0.00000
    832.   12.019  5.15E-06  3.57E-04  6.51E-41  4.51E-39  0.00E+00  0.00E+00  5.15E-06  3.57E-04       NaN  0.00000
    834.   11.990  5.13E-06  3.57E-04  5.46E-41  3.80E-39  0.00E+00  0.00E+00  5.13E-06  3.57E-04       NaN  0.00000
    836.   11.962  5.11E-06  3.57E-04  2.47E-41  1.73E-39  0.00E+00  0.00E+00  5.11E-06  3.57E-04       NaN  0.00000
    838.   11.933  5.08E-06  3.57E-04  1.63E-41  1.15E-39  0.00E+00  0.00E+00  5.08E-06  3.57E-04       NaN  0.00000
    840.   11.905  5.03E-06  3.55E-04  2.19E-42  1.54E-40  0.00E+00  0.00E+00  5.03E-06  3.55E-04       NaN  0.00000
    842.   11.876  5.02E-06  3.56E-04  1.63E-41  1.16E-39  0.00E+00  0.00E+00  5.02E-06  3.56E-04       NaN  0.00000
    844.   11.848  5.03E-06  3.58E-04  4.58E-41  3.26E-39  0.00E+00  0.00E+00  5.03E-06  3.58E-04       NaN  0.00000
    846.   11.820  5.01E-06  3.59E-04  3.60E-41  2.58E-39  0.00E+00  0.00E+00  5.01E-06  3.59E-04       NaN  0.00000
    848.   11.792  4.98E-06  3.58E-04  1.48E-41  1.07E-39  0.00E+00  0.00E+00  4.98E-06  3.58E-04       NaN  0.00000
    850.   11.765  4.91E-06  3.54E-04  1.71E-42  1.23E-40  0.00E+00  0.00E+00  4.91E-06  3.54E-04       NaN  0.00000
    852.   11.737  4.85E-06  3.52E-04  0.00E+00  0.00E+00  0.00E+00  0.00E+00  4.85E-06  3.52E-04       NaN  0.00000
    854.   11.710  4.87E-06  3.55E-04  7.29E-44  5.31E-42  0.00E+00  0.00E+00  4.87E-06  3.55E-04       NaN  0.00000
    856.   11.682  4.89E-06  3.59E-04  8.39E-42  6.15E-40  0.00E+00  0.00E+00  4.89E-06  3.59E-04       NaN  0.00000
    858.   11.655  4.90E-06  3.61E-04  2.06E-41  1.51E-39  0.00E+00  0.00E+00  4.90E-06  3.61E-04       NaN  0.00000
    860.   11.628  4.88E-06  3.61E-04  3.17E-41  2.34E-39  0.00E+00  0.00E+00  4.88E-06  3.61E-04       NaN  0.00000
    862.   11.601  4.86E-06  3.61E-04  4.68E-41  3.47E-39  0.00E+00  0.00E+00  4.86E-06  3.61E-04       NaN  0.00000
    864.   11.574  4.82E-06  3.60E-04  2.09E-41  1.56E-39  0.00E+00  0.00E+00  4.82E-06  3.60E-04       NaN  0.00000
    866.   11.547  4.80E-06  3.60E-04  1.72E-41  1.29E-39  0.00E+00  0.00E+00  4.80E-06  3.60E-04       NaN  0.00000
    868.   11.521  4.80E-06  3.62E-04  4.64E-41  3.49E-39  0.00E+00  0.00E+00  4.80E-06  3.62E-04       NaN  0.00000
    870.   11.494  4.76E-06  3.60E-04  2.62E-41  1.98E-39  0.00E+00  0.00E+00  4.76E-06  3.60E-04       NaN  0.00000
    872.   11.468  4.73E-06  3.60E-04  1.78E-41  1.35E-39  0.00E+00  0.00E+00  4.73E-06  3.60E-04       NaN  0.00000
    874.   11.442  4.74E-06  3.62E-04  4.91E-41  3.75E-39  0.00E+00  0.00E+00  4.74E-06  3.62E-04       NaN  0.00000
    876.   11.416  4.72E-06  3.62E-04  4.63E-41  3.55E-39  0.00E+00  0.00E+00  4.72E-06  3.62E-04       NaN  0.00000
    878.   11.390  4.69E-06  3.61E-04  1.73E-41  1.33E-39  0.00E+00  0.00E+00  4.69E-06  3.61E-04       NaN  0.00000
    880.   11.364  4.66E-06  3.61E-04  6.91E-42  5.35E-40  0.00E+00  0.00E+00  4.66E-06  3.61E-04       NaN  0.00000
    882.   11.338  4.64E-06  3.61E-04  5.80E-42  4.51E-40  0.00E+00  0.00E+00  4.64E-06  3.61E-04       NaN  0.00000
    884.   11.312  4.62E-06  3.61E-04  3.85E-42  3.01E-40  0.00E+00  0.00E+00  4.62E-06  3.61E-04       NaN  0.00000
    886.   11.287  4.58E-06  3.59E-04  4.01E-42  3.15E-40  0.00E+00  0.00E+00  4.58E-06  3.59E-04       NaN  0.00000
    888.   11.261  4.56E-06  3.60E-04  1.21E-42  9.58E-41  0.00E+00  0.00E+00  4.56E-06  3.60E-04       NaN  0.00000
    890.   11.236  4.57E-06  3.62E-04  6.13E-42  4.85E-40  0.00E+00  0.00E+00  4.57E-06  3.62E-04       NaN  0.00000
    892.   11.211  4.56E-06  3.63E-04  4.16E-41  3.31E-39  0.00E+00  0.00E+00  4.56E-06  3.63E-04       NaN  0.00000
    894.   11.186  4.55E-06  3.63E-04  7.88E-41  6.30E-39  0.00E+00  0.00E+00  4.55E-06  3.63E-04       NaN  0.00000
    896.   11.161  4.53E-06  3.63E-04  5.46E-41  4.38E-39  0.00E+00  0.00E+00  4.53E-06  3.63E-04       NaN  0.00000
    898.   11.136  4.51E-06  3.63E-04  4.54E-41  3.66E-39  0.00E+00  0.00E+00  4.51E-06  3.63E-04       NaN  0.00000
    900.   11.111  4.49E-06  3.64E-04  8.26E-41  6.69E-39  0.00E+00  0.00E+00  4.49E-06  3.64E-04       NaN  0.00000
  iv          905
1                                             RADIANCE(WATTS/CM2-STER-XXX)
0  FREQ   WAVLEN    PATH THERMAL      SURFACE EMISSION    SURFACE REFLECTED     TOTAL RADIANCE   INTEGRAL    TOTAL
  (CM-1) (MICRN)    (CM-1)   (MICRN)    (CM-1)   (MICRN)    (CM-1)   (MICRN)    (CM-1)   (MICRN)    (CM-1)   TRANS

    902.   11.086  4.47E-06  3.64E-04  7.84E-41  6.38E-39  0.00E+00  0.00E+00  4.47E-06  3.64E-04       NaN  0.00000
    904.   11.062  4.45E-06  3.64E-04  5.42E-41  4.43E-39  0.00E+00  0.00E+00  4.45E-06  3.64E-04       NaN  0.00000
    906.   11.038  4.43E-06  3.63E-04  1.84E-41  1.51E-39  0.00E+00  0.00E+00  4.43E-06  3.63E-04       NaN  0.00000
    908.   11.013  4.38E-06  3.61E-04  2.12E-42  1.75E-40  0.00E+00  0.00E+00  4.38E-06  3.61E-04       NaN  0.00000
    910.   10.989  4.37E-06  3.62E-04  8.39E-42  6.95E-40  0.00E+00  0.00E+00  4.37E-06  3.62E-04       NaN  0.00000
    912.   10.965  4.37E-06  3.64E-04  2.61E-41  2.17E-39  0.00E+00  0.00E+00  4.37E-06  3.64E-04       NaN  0.00000
    914.   10.941  4.35E-06  3.63E-04  3.53E-41  2.95E-39  0.00E+00  0.00E+00  4.35E-06  3.63E-04       NaN  0.00000
    916.   10.917  4.33E-06  3.63E-04  5.64E-41  4.73E-39  0.00E+00  0.00E+00  4.33E-06  3.63E-04       NaN  0.00000
    918.   10.893  4.31E-06  3.63E-04  3.87E-41  3.26E-39  0.00E+00  0.00E+00  4.31E-06  3.63E-04       NaN  0.00000
    920.   10.870  4.29E-06  3.63E-04  2.26E-41  1.92E-39  0.00E+00  0.00E+00  4.29E-06  3.63E-04       NaN  0.00000
    922.   10.846  4.25E-06  3.61E-04  5.73E-42  4.87E-40  0.00E+00  0.00E+00  4.25E-06  3.61E-04       NaN  0.00000
    924.   10.823  4.22E-06  3.60E-04  2.53E-42  2.16E-40  0.00E+00  0.00E+00  4.22E-06  3.60E-04       NaN  0.00000
    926.   10.799  4.21E-06  3.61E-04  2.61E-41  2.24E-39  0.00E+00  0.00E+00  4.21E-06  3.61E-04       NaN  0.00000
    928.   10.776  4.22E-06  3.63E-04  4.08E-41  3.51E-39  0.00E+00  0.00E+00  4.22E-06  3.63E-04       NaN  0.00000
    930.   10.753  4.20E-06  3.63E-04  5.21E-41  4.51E-39  0.00E+00  0.00E+00  4.20E-06  3.63E-04       NaN  0.00000
    932.   10.730  4.18E-06  3.63E-04  7.26E-41  6.31E-39  0.00E+00  0.00E+00  4.18E-06  3.63E-04       NaN  0.00000
    934.   10.707  4.17E-06  3.63E-04  8.58E-41  7.49E-39  0.00E+00  0.00E+00  4.17E-06  3.63E-04       NaN  0.00000
    936.   10.684  4.15E-06  3.63E-04  7.59E-41  6.65E-39  0.00E+00  0.00E+00  4.15E-06  3.63E-04       NaN  0.00000
    938.   10.661  4.13E-06  3.63E-04  7.14E-41  6.28E-39  0.00E+00  0.00E+00  4.13E-06  3.63E-04       NaN  0.00000
    940.   10.638  4.11E-06  3.63E-04  5.17E-41  4.57E-39  0.00E+00  0.00E+00  4.11E-06  3.63E-04       NaN  0.00000
    942.   10.616  4.09E-06  3.63E-04  3.87E-41  3.44E-39  0.00E+00  0.00E+00  4.09E-06  3.63E-04       NaN  0.00000
    944.   10.593  4.08E-06  3.63E-04  2.93E-41  2.61E-39  0.00E+00  0.00E+00  4.08E-06  3.63E-04       NaN  0.00000
    946.   10.571  4.05E-06  3.62E-04  1.44E-41  1.28E-39  0.00E+00  0.00E+00  4.05E-06  3.62E-04       NaN  0.00000
    948.   10.549  4.01E-06  3.60E-04  9.91E-42  8.90E-40  0.00E+00  0.00E+00  4.01E-06  3.60E-04       NaN  0.00000
    950.   10.526  4.02E-06  3.62E-04  3.58E-41  3.23E-39  0.00E+00  0.00E+00  4.02E-06  3.62E-04       NaN  0.00000
    952.   10.504  4.01E-06  3.63E-04  3.85E-41  3.49E-39  0.00E+00  0.00E+00  4.01E-06  3.63E-04       NaN  0.00000
    954.   10.482  3.97E-06  3.62E-04  8.69E-42  7.91E-40  0.00E+00  0.00E+00  3.97E-06  3.62E-04       NaN  0.00000
    956.   10.460  3.96E-06  3.62E-04  2.41E-41  2.20E-39  0.00E+00  0.00E+00  3.96E-06  3.62E-04       NaN  0.00000
    958.   10.438  3.96E-06  3.63E-04  4.16E-41  3.82E-39  0.00E+00  0.00E+00  3.96E-06  3.63E-04       NaN  0.00000
    960.   10.417  3.94E-06  3.63E-04  2.08E-41  1.92E-39  0.00E+00  0.00E+00  3.94E-06  3.63E-04       NaN  0.00000
    962.   10.395  3.93E-06  3.63E-04  4.70E-41  4.35E-39  0.00E+00  0.00E+00  3.93E-06  3.63E-04       NaN  0.00000
    964.   10.373  3.91E-06  3.63E-04  6.21E-41  5.77E-39  0.00E+00  0.00E+00  3.91E-06  3.63E-04       NaN  0.00000
    966.   10.352  3.89E-06  3.63E-04  2.97E-41  2.77E-39  0.00E+00  0.00E+00  3.89E-06  3.63E-04       NaN  0.00000
    968.   10.331  3.87E-06  3.63E-04  3.83E-41  3.59E-39  0.00E+00  0.00E+00  3.87E-06  3.63E-04       NaN  0.00000
    970.   10.309  3.85E-06  3.62E-04  2.93E-41  2.76E-39  0.00E+00  0.00E+00  3.85E-06  3.62E-04       NaN  0.00000
    972.   10.288  3.82E-06  3.61E-04  3.63E-42  3.43E-40  0.00E+00  0.00E+00  3.82E-06  3.61E-04       NaN  0.00000
    974.   10.267  3.80E-06  3.61E-04  1.86E-42  1.77E-40  0.00E+00  0.00E+00  3.80E-06  3.61E-04       NaN  0.00000
    976.   10.246  3.79E-06  3.61E-04  2.64E-42  2.52E-40  0.00E+00  0.00E+00  3.79E-06  3.61E-04       NaN  0.00000
    978.   10.225  3.78E-06  3.62E-04  2.01E-41  1.93E-39  0.00E+00  0.00E+00  3.78E-06  3.62E-04       NaN  0.00000
    980.   10.204  3.78E-06  3.63E-04  4.41E-41  4.23E-39  0.00E+00  0.00E+00  3.78E-06  3.63E-04       NaN  0.00000
    982.   10.183  3.76E-06  3.63E-04  4.12E-41  3.98E-39  0.00E+00  0.00E+00  3.76E-06  3.63E-04       NaN  0.00000
    984.   10.163  3.74E-06  3.62E-04  4.16E-41  4.03E-39  0.00E+00  0.00E+00  3.74E-06  3.62E-04       NaN  0.00000
    986.   10.142  3.73E-06  3.63E-04  7.06E-41  6.86E-39  0.00E+00  0.00E+00  3.73E-06  3.63E-04       NaN  0.00000
    988.   10.121  3.72E-06  3.63E-04  8.01E-41  7.82E-39  0.00E+00  0.00E+00  3.72E-06  3.63E-04       NaN  0.00000
    990.   10.101  3.70E-06  3.62E-04  6.51E-41  6.38E-39  0.00E+00  0.00E+00  3.70E-06  3.62E-04       NaN  0.00000
    992.   10.081  3.68E-06  3.62E-04  7.79E-41  7.67E-39  0.00E+00  0.00E+00  3.68E-06  3.62E-04       NaN  0.00000
    994.   10.060  3.67E-06  3.62E-04  6.62E-41  6.54E-39  0.00E+00  0.00E+00  3.67E-06  3.62E-04       NaN  0.00000
    996.   10.040  3.65E-06  3.62E-04  5.29E-41  5.25E-39  0.00E+00  0.00E+00  3.65E-06  3.62E-04       NaN  0.00000
    998.   10.020  3.63E-06  3.61E-04  2.55E-41  2.54E-39  0.00E+00  0.00E+00  3.63E-06  3.61E-04       NaN  0.00000
   1000.   10.000  3.60E-06  3.60E-04  1.09E-41  1.09E-39  0.00E+00  0.00E+00  3.60E-06  3.60E-04       NaN  0.00000
  iv         1005
1                                             RADIANCE(WATTS/CM2-STER-XXX)
0  FREQ   WAVLEN    PATH THERMAL      SURFACE EMISSION    SURFACE REFLECTED     TOTAL RADIANCE   INTEGRAL    TOTAL
  (CM-1) (MICRN)    (CM-1)   (MICRN)    (CM-1)   (MICRN)    (CM-1)   (MICRN)    (CM-1)   (MICRN)    (CM-1)   TRANS

   1002.    9.980  3.59E-06  3.61E-04  2.53E-41  2.54E-39  0.00E+00  0.00E+00  3.59E-06  3.61E-04       NaN  0.00000
   1004.    9.960  3.57E-06  3.60E-04  2.85E-41  2.88E-39  0.00E+00  0.00E+00  3.57E-06  3.60E-04       NaN  0.00000
   1006.    9.940  3.56E-06  3.61E-04  3.73E-41  3.78E-39  0.00E+00  0.00E+00  3.56E-06  3.61E-04       NaN  0.00000
   1008.    9.921  3.55E-06  3.61E-04  2.92E-41  2.97E-39  0.00E+00  0.00E+00  3.55E-06  3.61E-04       NaN  0.00000
   1010.    9.901  3.52E-06  3.59E-04  1.20E-41  1.22E-39  0.00E+00  0.00E+00  3.52E-06  3.59E-04       NaN  0.00000
   1012.    9.881  3.50E-06  3.59E-04  6.02E-42  6.16E-40  0.00E+00  0.00E+00  3.50E-06  3.59E-04       NaN  0.00000
   1014.    9.862  3.48E-06  3.58E-04  4.86E-42  5.00E-40  0.00E+00  0.00E+00  3.48E-06  3.58E-04       NaN  0.00000
   1016.    9.843  3.47E-06  3.58E-04  5.05E-42  5.21E-40  0.00E+00  0.00E+00  3.47E-06  3.58E-04       NaN  0.00000
   1018.    9.823  3.45E-06  3.58E-04  6.31E-42  6.54E-40  0.00E+00  0.00E+00  3.45E-06  3.58E-04       NaN  0.00000
   1020.    9.804  3.45E-06  3.59E-04  2.16E-41  2.25E-39  0.00E+00  0.00E+00  3.45E-06  3.59E-04       NaN  0.00000
   1022.    9.785  3.44E-06  3.60E-04  4.50E-41  4.70E-39  0.00E+00  0.00E+00  3.44E-06  3.60E-04       NaN  0.00000
   1024.    9.766  3.43E-06  3.60E-04  6.39E-41  6.70E-39  0.00E+00  0.00E+00  3.43E-06  3.60E-04       NaN  0.00000
   1026.    9.747  3.41E-06  3.59E-04  4.73E-41  4.98E-39  0.00E+00  0.00E+00  3.41E-06  3.59E-04       NaN  0.00000
   1028.    9.728  3.35E-06  3.54E-04  1.24E-41  1.31E-39  0.00E+00  0.00E+00  3.35E-06  3.54E-04       NaN  0.00000
   1030.    9.709  3.34E-06  3.55E-04  1.59E-42  1.69E-40  0.00E+00  0.00E+00  3.34E-06  3.55E-04       NaN  0.00000
   1032.    9.690  3.36E-06  3.58E-04  1.32E-41  1.40E-39  0.00E+00  0.00E+00  3.36E-06  3.58E-04       NaN  0.00000
   1034.    9.671  3.35E-06  3.58E-04  4.29E-41  4.58E-39  0.00E+00  0.00E+00  3.35E-06  3.58E-04       NaN  0.00000
   1036.    9.653  3.34E-06  3.58E-04  5.47E-41  5.87E-39  0.00E+00  0.00E+00  3.34E-06  3.58E-04       NaN  0.00000
   1038.    9.634  3.31E-06  3.57E-04  2.58E-41  2.78E-39  0.00E+00  0.00E+00  3.31E-06  3.57E-04       NaN  0.00000
   1040.    9.615  3.30E-06  3.57E-04  1.71E-41  1.85E-39  0.00E+00  0.00E+00  3.30E-06  3.57E-04       NaN  0.00000
   1042.    9.597  3.29E-06  3.57E-04  3.02E-41  3.28E-39  0.00E+00  0.00E+00  3.29E-06  3.57E-04       NaN  0.00000
   1044.    9.579  3.28E-06  3.57E-04  4.63E-41  5.05E-39  0.00E+00  0.00E+00  3.28E-06  3.57E-04       NaN  0.00000
   1046.    9.560  3.26E-06  3.57E-04  6.05E-41  6.62E-39  0.00E+00  0.00E+00  3.26E-06  3.57E-04       NaN  0.00000
   1048.    9.542  3.23E-06  3.55E-04  3.16E-41  3.48E-39  0.00E+00  0.00E+00  3.23E-06  3.55E-04       NaN  0.00000
   1050.    9.524  3.20E-06  3.53E-04  4.24E-42  4.67E-40  0.00E+00  0.00E+00  3.20E-06  3.53E-04       NaN  0.00000
   1052.    9.506  3.20E-06  3.55E-04  1.18E-41  1.30E-39  0.00E+00  0.00E+00  3.20E-06  3.55E-04       NaN  0.00000
   1054.    9.488  3.20E-06  3.55E-04  2.15E-41  2.39E-39  0.00E+00  0.00E+00  3.20E-06  3.55E-04       NaN  0.00000
   1056.    9.470  3.17E-06  3.53E-04  1.23E-41  1.37E-39  0.00E+00  0.00E+00  3.17E-06  3.53E-04       NaN  0.00000
   1058.    9.452  3.16E-06  3.54E-04  1.00E-41  1.12E-39  0.00E+00  0.00E+00  3.16E-06  3.54E-04       NaN  0.00000
   1060.    9.434  3.14E-06  3.52E-04  2.93E-42  3.29E-40  0.00E+00  0.00E+00  3.14E-06  3.52E-04       NaN  0.00000
   1062.    9.416  3.12E-06  3.52E-04  1.06E-42  1.19E-40  0.00E+00  0.00E+00  3.12E-06  3.52E-04       NaN  0.00000
   1064.    9.398  3.08E-06  3.49E-04  1.18E-42  1.33E-40  0.00E+00  0.00E+00  3.08E-06  3.49E-04       NaN  0.00000
   1066.    9.381  3.02E-06  3.43E-04  6.38E-43  7.25E-41  0.00E+00  0.00E+00  3.02E-06  3.43E-04       NaN  0.00000
   1068.    9.363  3.06E-06  3.49E-04  7.04E-42  8.03E-40  0.00E+00  0.00E+00  3.06E-06  3.49E-04       NaN  0.00000
   1070.    9.346  3.08E-06  3.52E-04  1.86E-41  2.13E-39  0.00E+00  0.00E+00  3.08E-06  3.52E-04       NaN  0.00000
   1072.    9.328  3.04E-06  3.49E-04  9.91E-42  1.14E-39  0.00E+00  0.00E+00  3.04E-06  3.49E-04       NaN  0.00000
   1074.    9.311  2.99E-06  3.44E-04  6.40E-43  7.39E-41  0.00E+00  0.00E+00  2.99E-06  3.44E-04       NaN  0.00000
   1076.    9.294  3.00E-06  3.48E-04  8.39E-42  9.71E-40  0.00E+00  0.00E+00  3.00E-06  3.48E-04       NaN  0.00000
   1078.    9.276  3.01E-06  3.50E-04  3.35E-41  3.90E-39  0.00E+00  0.00E+00  3.01E-06  3.50E-04       NaN  0.00000
   1080.    9.259  2.99E-06  3.49E-04  3.62E-41  4.22E-39  0.00E+00  0.00E+00  2.99E-06  3.49E-04       NaN  0.00000
   1082.    9.242  2.98E-06  3.49E-04  3.15E-41  3.68E-39  0.00E+00  0.00E+00  2.98E-06  3.49E-04       NaN  0.00000
   1084.    9.225  2.95E-06  3.47E-04  2.42E-41  2.84E-39  0.00E+00  0.00E+00  2.95E-06  3.47E-04       NaN  0.00000
   1086.    9.208  2.94E-06  3.46E-04  1.33E-41  1.56E-39  0.00E+00  0.00E+00  2.94E-06  3.46E-04       NaN  0.00000
   1088.    9.191  2.93E-06  3.47E-04  1.54E-41  1.83E-39  0.00E+00  0.00E+00  2.93E-06  3.47E-04       NaN  0.00000
   1090.    9.174  2.89E-06  3.43E-04  5.95E-42  7.07E-40  0.00E+00  0.00E+00  2.89E-06  3.43E-04       NaN  0.00000
   1092.    9.158  2.87E-06  3.42E-04  3.67E-42  4.37E-40  0.00E+00  0.00E+00  2.87E-06  3.42E-04       NaN  0.00000
   1094.    9.141  2.88E-06  3.45E-04  1.82E-41  2.18E-39  0.00E+00  0.00E+00  2.88E-06  3.45E-04       NaN  0.00000
   1096.    9.124  2.87E-06  3.45E-04  2.52E-41  3.02E-39  0.00E+00  0.00E+00  2.87E-06  3.45E-04       NaN  0.00000
   1098.    9.107  2.84E-06  3.42E-04  1.01E-41  1.21E-39  0.00E+00  0.00E+00  2.84E-06  3.42E-04       NaN  0.00000
   1100.    9.091  2.75E-06  3.33E-04  6.03E-43  7.29E-41  0.00E+00  0.00E+00  2.75E-06  3.33E-04       NaN  0.00000
  iv         1105
1                                             RADIANCE(WATTS/CM2-STER-XXX)
0  FREQ   WAVLEN    PATH THERMAL      SURFACE EMISSION    SURFACE REFLECTED     TOTAL RADIANCE   INTEGRAL    TOTAL
  (CM-1) (MICRN)    (CM-1)   (MICRN)    (CM-1)   (MICRN)    (CM-1)   (MICRN)    (CM-1)   (MICRN)    (CM-1)   TRANS

   1102.    9.074  2.76E-06  3.35E-04  5.59E-43  6.79E-41  0.00E+00  0.00E+00  2.76E-06  3.35E-04       NaN  0.00000
   1104.    9.058  2.80E-06  3.41E-04  1.53E-42  1.87E-40  0.00E+00  0.00E+00  2.80E-06  3.41E-04       NaN  0.00000
   1106.    9.042  2.73E-06  3.34E-04  5.32E-43  6.51E-41  0.00E+00  0.00E+00  2.73E-06  3.34E-04       NaN  0.00000
   1108.    9.025  2.72E-06  3.34E-04  2.17E-43  2.67E-41  0.00E+00  0.00E+00  2.72E-06  3.34E-04       NaN  0.00000
   1110.    9.009  2.72E-06  3.35E-04  2.79E-43  3.44E-41  0.00E+00  0.00E+00  2.72E-06  3.35E-04       NaN  0.00000
   1112.    8.993  2.65E-06  3.27E-04  5.66E-43  7.00E-41  0.00E+00  0.00E+00  2.65E-06  3.27E-04       NaN  0.00000
   1114.    8.977  2.70E-06  3.35E-04  3.45E-42  4.28E-40  0.00E+00  0.00E+00  2.70E-06  3.35E-04       NaN  0.00000
   1116.    8.961  2.71E-06  3.37E-04  5.29E-42  6.59E-40  0.00E+00  0.00E+00  2.71E-06  3.37E-04       NaN  0.00000
   1118.    8.945  2.69E-06  3.36E-04  1.74E-42  2.18E-40  0.00E+00  0.00E+00  2.69E-06  3.36E-04       NaN  0.00000
   1120.    8.929  2.60E-06  3.26E-04  1.40E-43  1.76E-41  0.00E+00  0.00E+00  2.60E-06  3.26E-04       NaN  0.00000
   1122.    8.913  2.58E-06  3.25E-04  2.42E-43  3.05E-41  0.00E+00  0.00E+00  2.58E-06  3.25E-04       NaN  0.00000
   1124.    8.897  2.65E-06  3.34E-04  3.91E-42  4.94E-40  0.00E+00  0.00E+00  2.65E-06  3.34E-04       NaN  0.00000
   1126.    8.881  2.64E-06  3.34E-04  1.00E-41  1.27E-39  0.00E+00  0.00E+00  2.64E-06  3.34E-04       NaN  0.00000
   1128.    8.865  2.62E-06  3.34E-04  1.19E-41  1.52E-39  0.00E+00  0.00E+00  2.62E-06  3.34E-04       NaN  0.00000
   1130.    8.850  2.60E-06  3.32E-04  4.96E-42  6.33E-40  0.00E+00  0.00E+00  2.60E-06  3.32E-04       NaN  0.00000
   1132.    8.834  2.58E-06  3.31E-04  8.14E-43  1.04E-40  0.00E+00  0.00E+00  2.58E-06  3.31E-04       NaN  0.00000
   1134.    8.818  2.48E-06  3.19E-04  2.94E-44  3.78E-42  0.00E+00  0.00E+00  2.48E-06  3.19E-04       NaN  0.00000
   1136.    8.803  2.29E-06  2.96E-04  0.00E+00  0.00E+00  0.00E+00  0.00E+00  2.29E-06  2.96E-04       NaN  0.00000
   1138.    8.787  2.41E-06  3.12E-04  1.82E-44  2.36E-42  0.00E+00  0.00E+00  2.41E-06  3.12E-04       NaN  0.00000
   1140.    8.772  2.52E-06  3.28E-04  1.60E-43  2.08E-41  0.00E+00  0.00E+00  2.52E-06  3.28E-04       NaN  0.00000
   1142.    8.757  2.51E-06  3.28E-04  1.57E-42  2.05E-40  0.00E+00  0.00E+00  2.51E-06  3.28E-04       NaN  0.00000
   1144.    8.741  2.50E-06  3.28E-04  3.61E-42  4.72E-40  0.00E+00  0.00E+00  2.50E-06  3.28E-04       NaN  0.00000
   1146.    8.726  2.49E-06  3.27E-04  2.75E-42  3.61E-40  0.00E+00  0.00E+00  2.49E-06  3.27E-04       NaN  0.00000
   1148.    8.711  2.41E-06  3.18E-04  5.32E-43  7.02E-41  0.00E+00  0.00E+00  2.41E-06  3.18E-04       NaN  0.00000
   1150.    8.696  2.35E-06  3.11E-04  0.00E+00  0.00E+00  0.00E+00  0.00E+00  2.35E-06  3.11E-04       NaN  0.00000
   1152.    8.681  2.33E-06  3.09E-04  1.12E-44  1.49E-42  0.00E+00  0.00E+00  2.33E-06  3.09E-04       NaN  0.00000
   1154.    8.666  2.39E-06  3.18E-04  9.94E-43  1.32E-40  0.00E+00  0.00E+00  2.39E-06  3.18E-04       NaN  0.00000
   1156.    8.651  2.41E-06  3.22E-04  7.32E-42  9.79E-40  0.00E+00  0.00E+00  2.41E-06  3.22E-04       NaN  0.00000
   1158.    8.636  2.40E-06  3.22E-04  9.13E-42  1.22E-39  0.00E+00  0.00E+00  2.40E-06  3.22E-04       NaN  0.00000
   1160.    8.621  2.39E-06  3.21E-04  5.59E-42  7.53E-40  0.00E+00  0.00E+00  2.39E-06  3.21E-04       NaN  0.00000
   1162.    8.606  2.36E-06  3.19E-04  2.34E-42  3.16E-40  0.00E+00  0.00E+00  2.36E-06  3.19E-04       NaN  0.00000
   1164.    8.591  2.23E-06  3.02E-04  1.26E-43  1.71E-41  0.00E+00  0.00E+00  2.23E-06  3.02E-04       NaN  0.00000
   1166.    8.576  2.18E-06  2.96E-04  1.26E-44  1.72E-42  0.00E+00  0.00E+00  2.18E-06  2.96E-04       NaN  0.00000
   1168.    8.562  2.30E-06  3.14E-04  5.61E-44  7.65E-42  0.00E+00  0.00E+00  2.30E-06  3.14E-04       NaN  0.00000
   1170.    8.547  2.30E-06  3.15E-04  3.22E-44  4.41E-42  0.00E+00  0.00E+00  2.30E-06  3.15E-04       NaN  0.00000
   1172.    8.532  2.24E-06  3.08E-04  0.00E+00  0.00E+00  0.00E+00  0.00E+00  2.24E-06  3.08E-04       NaN  0.00000
   1174.    8.518  2.03E-06  2.79E-04  0.00E+00  0.00E+00  0.00E+00  0.00E+00  2.03E-06  2.79E-04       NaN  0.00000
   1176.    8.503  2.07E-06  2.86E-04  0.00E+00  0.00E+00  0.00E+00  0.00E+00  2.07E-06  2.86E-04       NaN  0.00000
   1178.    8.489  2.23E-06  3.10E-04  0.00E+00  0.00E+00  0.00E+00  0.00E+00  2.23E-06  3.10E-04       NaN  0.00000
   1180.    8.475  2.21E-06  3.08E-04  4.20E-45  5.86E-43  0.00E+00  0.00E+00  2.21E-06  3.08E-04       NaN  0.00000
   1182.    8.460  2.21E-06  3.08E-04  1.54E-44  2.15E-42  0.00E+00  0.00E+00  2.21E-06  3.08E-04       NaN  0.00000
   1184.    8.446  2.20E-06  3.08E-04  7.01E-45  9.82E-43  0.00E+00  0.00E+00  2.20E-06  3.08E-04       NaN  0.00000
   1186.    8.432  2.03E-06  2.86E-04  0.00E+00  0.00E+00  0.00E+00  0.00E+00  2.03E-06  2.86E-04       NaN  0.00000
   1188.    8.418  1.99E-06  2.81E-04  0.00E+00  0.00E+00  0.00E+00  0.00E+00  1.99E-06  2.81E-04       NaN  0.00000
   1190.    8.403  2.11E-06  2.99E-04  0.00E+00  0.00E+00  0.00E+00  0.00E+00  2.11E-06  2.99E-04       NaN  0.00000
   1192.    8.389  2.12E-06  3.01E-04  2.80E-45  3.98E-43  0.00E+00  0.00E+00  2.12E-06  3.01E-04       NaN  0.00000
   1194.    8.375  2.12E-06  3.02E-04  4.20E-45  6.00E-43  0.00E+00  0.00E+00  2.12E-06  3.02E-04       NaN  0.00000
   1196.    8.361  2.05E-06  2.94E-04  1.40E-45  2.00E-43  0.00E+00  0.00E+00  2.05E-06  2.94E-04       NaN  0.00000
   1198.    8.347  1.92E-06  2.75E-04  1.40E-45  2.02E-43  0.00E+00  0.00E+00  1.92E-06  2.75E-04       NaN  0.00000
   1200.    8.333  2.01E-06  2.90E-04  4.20E-45  6.05E-43  0.00E+00  0.00E+00  2.01E-06  2.90E-04       NaN  0.00000
  iv         1205
1                                             RADIANCE(WATTS/CM2-STER-XXX)
0  FREQ   WAVLEN    PATH THERMAL      SURFACE EMISSION    SURFACE REFLECTED     TOTAL RADIANCE   INTEGRAL    TOTAL
  (CM-1) (MICRN)    (CM-1)   (MICRN)    (CM-1)   (MICRN)    (CM-1)   (MICRN)    (CM-1)   (MICRN)    (CM-1)   TRANS

   1202.    8.319  2.09E-06  3.02E-04  5.47E-44  7.90E-42  0.00E+00  0.00E+00  2.09E-06  3.02E-04       NaN  0.00000
   1204.    8.306  2.06E-06  2.98E-04  7.71E-44  1.12E-41  0.00E+00  0.00E+00  2.06E-06  2.98E-04       NaN  0.00000
   1206.    8.292  2.01E-06  2.92E-04  1.68E-44  2.45E-42  0.00E+00  0.00E+00  2.01E-06  2.92E-04       NaN  0.00000
   1208.    8.278  2.01E-06  2.93E-04  0.00E+00  0.00E+00  0.00E+00  0.00E+00  2.01E-06  2.93E-04       NaN  0.00000
   1210.    8.264  1.86E-06  2.72E-04  0.00E+00  0.00E+00  0.00E+00  0.00E+00  1.86E-06  2.72E-04       NaN  0.00000
   1212.    8.251  1.69E-06  2.49E-04  0.00E+00  0.00E+00  0.00E+00  0.00E+00  1.69E-06  2.49E-04       NaN  0.00000
   1214.    8.237  1.85E-06  2.73E-04  0.00E+00  0.00E+00  0.00E+00  0.00E+00  1.85E-06  2.73E-04       NaN  0.00000
   1216.    8.224  1.93E-06  2.86E-04  0.00E+00  0.00E+00  0.00E+00  0.00E+00  1.93E-06  2.86E-04       NaN  0.00000
   1218.    8.210  1.83E-06  2.72E-04  0.00E+00  0.00E+00  0.00E+00  0.00E+00  1.83E-06  2.72E-04       NaN  0.00000
   1220.    8.197  1.79E-06  2.67E-04  0.00E+00  0.00E+00  0.00E+00  0.00E+00  1.79E-06  2.67E-04       NaN  0.00000
   1222.    8.183  1.85E-06  2.76E-04  0.00E+00  0.00E+00  0.00E+00  0.00E+00  1.85E-06  2.76E-04       NaN  0.00000
   1224.    8.170  1.70E-06  2.55E-04  0.00E+00  0.00E+00  0.00E+00  0.00E+00  1.70E-06  2.55E-04       NaN  0.00000
   1226.    8.157  1.65E-06  2.48E-04  0.00E+00  0.00E+00  0.00E+00  0.00E+00  1.65E-06  2.48E-04       NaN  0.00000
   1228.    8.143  1.83E-06  2.76E-04  0.00E+00  0.00E+00  0.00E+00  0.00E+00  1.83E-06  2.76E-04       NaN  0.00000
   1230.    8.130  1.88E-06  2.84E-04  3.64E-44  5.51E-42  0.00E+00  0.00E+00  1.88E-06  2.84E-04       NaN  0.00000
   1232.    8.117  1.88E-06  2.85E-04  7.85E-44  1.19E-41  0.00E+00  0.00E+00  1.88E-06  2.85E-04       NaN  0.00000
   1234.    8.104  1.85E-06  2.82E-04  8.27E-44  1.26E-41  0.00E+00  0.00E+00  1.85E-06  2.82E-04       NaN  0.00000
   1236.    8.091  1.78E-06  2.72E-04  3.08E-44  4.71E-42  0.00E+00  0.00E+00  1.78E-06  2.72E-04       NaN  0.00000
   1238.    8.078  1.74E-06  2.66E-04  0.00E+00  0.00E+00  0.00E+00  0.00E+00  1.74E-06  2.66E-04       NaN  0.00000
   1240.    8.065  1.74E-06  2.67E-04  0.00E+00  0.00E+00  0.00E+00  0.00E+00  1.74E-06  2.67E-04       NaN  0.00000
   1242.    8.052  1.67E-06  2.57E-04  0.00E+00  0.00E+00  0.00E+00  0.00E+00  1.67E-06  2.57E-04       NaN  0.00000
   1244.    8.039  1.49E-06  2.30E-04  0.00E+00  0.00E+00  0.00E+00  0.00E+00  1.49E-06  2.30E-04       NaN  0.00000
   1246.    8.026  1.63E-06  2.53E-04  0.00E+00  0.00E+00  0.00E+00  0.00E+00  1.63E-06  2.53E-04       NaN  0.00000
   1248.    8.013  1.72E-06  2.67E-04  0.00E+00  0.00E+00  0.00E+00  0.00E+00  1.72E-06  2.67E-04       NaN  0.00000
   1250.    8.000  1.65E-06  2.59E-04  0.00E+00  0.00E+00  0.00E+00  0.00E+00  1.65E-06  2.59E-04       NaN  0.00000
   1252.    7.987  1.58E-06  2.48E-04  0.00E+00  0.00E+00  0.00E+00  0.00E+00  1.58E-06  2.48E-04       NaN  0.00000
   1254.    7.974  1.60E-06  2.52E-04  0.00E+00  0.00E+00  0.00E+00  0.00E+00  1.60E-06  2.52E-04       NaN  0.00000
   1256.    7.962  1.62E-06  2.56E-04  0.00E+00  0.00E+00  0.00E+00  0.00E+00  1.62E-06  2.56E-04       NaN  0.00000
   1258.    7.949  1.47E-06  2.33E-04  0.00E+00  0.00E+00  0.00E+00  0.00E+00  1.47E-06  2.33E-04       NaN  0.00000
   1260.    7.937  1.23E-06  1.95E-04  0.00E+00  0.00E+00  0.00E+00  0.00E+00  1.23E-06  1.95E-04       NaN  0.00000
   1262.    7.924  1.40E-06  2.24E-04  0.00E+00  0.00E+00  0.00E+00  0.00E+00  1.40E-06  2.24E-04       NaN  0.00000
   1264.    7.911  1.44E-06  2.30E-04  0.00E+00  0.00E+00  0.00E+00  0.00E+00  1.44E-06  2.30E-04       NaN  0.00000
   1266.    7.899  1.29E-06  2.06E-04  0.00E+00  0.00E+00  0.00E+00  0.00E+00  1.29E-06  2.06E-04       NaN  0.00000
   1268.    7.886  1.17E-06  1.89E-04  0.00E+00  0.00E+00  0.00E+00  0.00E+00  1.17E-06  1.89E-04       NaN  0.00000
   1270.    7.874  1.09E-06  1.77E-04  0.00E+00  0.00E+00  0.00E+00  0.00E+00  1.09E-06  1.77E-04       NaN  0.00000
   1272.    7.862  1.09E-06  1.77E-04  0.00E+00  0.00E+00  0.00E+00  0.00E+00  1.09E-06  1.77E-04       NaN  0.00000
   1274.    7.849  1.35E-06  2.19E-04  0.00E+00  0.00E+00  0.00E+00  0.00E+00  1.35E-06  2.19E-04       NaN  0.00000
   1276.    7.837  1.52E-06  2.48E-04  0.00E+00  0.00E+00  0.00E+00  0.00E+00  1.52E-06  2.48E-04       NaN  0.00000
   1278.    7.825  1.50E-06  2.46E-04  0.00E+00  0.00E+00  0.00E+00  0.00E+00  1.50E-06  2.46E-04       NaN  0.00000
   1280.    7.812  1.36E-06  2.23E-04  0.00E+00  0.00E+00  0.00E+00  0.00E+00  1.36E-06  2.23E-04       NaN  0.00000
   1282.    7.800  1.35E-06  2.22E-04  0.00E+00  0.00E+00  0.00E+00  0.00E+00  1.35E-06  2.22E-04       NaN  0.00000
   1284.    7.788  1.30E-06  2.14E-04  0.00E+00  0.00E+00  0.00E+00  0.00E+00  1.30E-06  2.14E-04       NaN  0.00000
   1286.    7.776  1.18E-06  1.95E-04  0.00E+00  0.00E+00  0.00E+00  0.00E+00  1.18E-06  1.95E-04       NaN  0.00000
   1288.    7.764  1.10E-06  1.82E-04  0.00E+00  0.00E+00  0.00E+00  0.00E+00  1.10E-06  1.82E-04       NaN  0.00000
   1290.    7.752  1.24E-06  2.07E-04  0.00E+00  0.00E+00  0.00E+00  0.00E+00  1.24E-06  2.07E-04       NaN  0.00000
   1292.    7.740  1.31E-06  2.19E-04  0.00E+00  0.00E+00  0.00E+00  0.00E+00  1.31E-06  2.19E-04       NaN  0.00000
   1294.    7.728  1.31E-06  2.20E-04  0.00E+00  0.00E+00  0.00E+00  0.00E+00  1.31E-06  2.20E-04       NaN  0.00000
   1296.    7.716  1.20E-06  2.02E-04  0.00E+00  0.00E+00  0.00E+00  0.00E+00  1.20E-06  2.02E-04       NaN  0.00000
   1298.    7.704  1.26E-06  2.13E-04  0.00E+00  0.00E+00  0.00E+00  0.00E+00  1.26E-06  2.13E-04       NaN  0.00000
   1300.    7.692  1.36E-06  2.30E-04  0.00E+00  0.00E+00  0.00E+00  0.00E+00  1.36E-06  2.30E-04       NaN  0.00000
  iv         1305
1                                             RADIANCE(WATTS/CM2-STER-XXX)
0  FREQ   WAVLEN    PATH THERMAL      SURFACE EMISSION    SURFACE REFLECTED     TOTAL RADIANCE   INTEGRAL    TOTAL
  (CM-1) (MICRN)    (CM-1)   (MICRN)    (CM-1)   (MICRN)    (CM-1)   (MICRN)    (CM-1)   (MICRN)    (CM-1)   TRANS

   1302.    7.680  1.36E-06  2.30E-04  0.00E+00  0.00E+00  0.00E+00  0.00E+00  1.36E-06  2.30E-04       NaN  0.00000
   1304.    7.669  1.29E-06  2.20E-04  0.00E+00  0.00E+00  0.00E+00  0.00E+00  1.29E-06  2.20E-04       NaN  0.00000
   1306.    7.657  1.12E-06  1.92E-04  0.00E+00  0.00E+00  0.00E+00  0.00E+00  1.12E-06  1.92E-04       NaN  0.00000
   1308.    7.645  1.02E-06  1.74E-04  0.00E+00  0.00E+00  0.00E+00  0.00E+00  1.02E-06  1.74E-04       NaN  0.00000
   1310.    7.634  1.05E-06  1.81E-04  0.00E+00  0.00E+00  0.00E+00  0.00E+00  1.05E-06  1.81E-04       NaN  0.00000
   1312.    7.622  8.99E-07  1.55E-04  0.00E+00  0.00E+00  0.00E+00  0.00E+00  8.99E-07  1.55E-04       NaN  0.00000
   1314.    7.610  7.93E-07  1.37E-04  0.00E+00  0.00E+00  0.00E+00  0.00E+00  7.93E-07  1.37E-04       NaN  0.00000
   1316.    7.599  8.07E-07  1.40E-04  0.00E+00  0.00E+00  0.00E+00  0.00E+00  8.07E-07  1.40E-04       NaN  0.00000
   1318.    7.587  7.18E-07  1.25E-04  0.00E+00  0.00E+00  0.00E+00  0.00E+00  7.18E-07  1.25E-04       NaN  0.00000
   1320.    7.576  7.43E-07  1.29E-04  0.00E+00  0.00E+00  0.00E+00  0.00E+00  7.43E-07  1.29E-04       NaN  0.00000
   1322.    7.564  9.25E-07  1.62E-04  0.00E+00  0.00E+00  0.00E+00  0.00E+00  9.25E-07  1.62E-04       NaN  0.00000
   1324.    7.553  1.02E-06  1.78E-04  0.00E+00  0.00E+00  0.00E+00  0.00E+00  1.02E-06  1.78E-04       NaN  0.00000
   1326.    7.541  1.03E-06  1.81E-04  0.00E+00  0.00E+00  0.00E+00  0.00E+00  1.03E-06  1.81E-04       NaN  0.00000
   1328.    7.530  9.81E-07  1.73E-04  0.00E+00  0.00E+00  0.00E+00  0.00E+00  9.81E-07  1.73E-04       NaN  0.00000
   1330.    7.519  9.60E-07  1.70E-04  0.00E+00  0.00E+00  0.00E+00  0.00E+00  9.60E-07  1.70E-04       NaN  0.00000
   1332.    7.508  9.63E-07  1.71E-04  0.00E+00  0.00E+00  0.00E+00  0.00E+00  9.63E-07  1.71E-04       NaN  0.00000
   1334.    7.496  9.07E-07  1.61E-04  0.00E+00  0.00E+00  0.00E+00  0.00E+00  9.07E-07  1.61E-04       NaN  0.00000
   1336.    7.485  7.74E-07  1.38E-04  0.00E+00  0.00E+00  0.00E+00  0.00E+00  7.74E-07  1.38E-04       NaN  0.00000
   1338.    7.474  6.12E-07  1.10E-04  0.00E+00  0.00E+00  0.00E+00  0.00E+00  6.12E-07  1.10E-04       NaN  0.00000
   1340.    7.463  5.84E-07  1.05E-04  0.00E+00  0.00E+00  0.00E+00  0.00E+00  5.84E-07  1.05E-04       NaN  0.00000
   1342.    7.452  7.82E-07  1.41E-04  0.00E+00  0.00E+00  0.00E+00  0.00E+00  7.82E-07  1.41E-04       NaN  0.00000
   1344.    7.440  9.00E-07  1.63E-04  0.00E+00  0.00E+00  0.00E+00  0.00E+00  9.00E-07  1.63E-04       NaN  0.00000
   1346.    7.429  8.99E-07  1.63E-04  0.00E+00  0.00E+00  0.00E+00  0.00E+00  8.99E-07  1.63E-04       NaN  0.00000
   1348.    7.418  7.85E-07  1.43E-04  0.00E+00  0.00E+00  0.00E+00  0.00E+00  7.85E-07  1.43E-04       NaN  0.00000
   1350.    7.407  7.45E-07  1.36E-04  0.00E+00  0.00E+00  0.00E+00  0.00E+00  7.45E-07  1.36E-04       NaN  0.00000
   1352.    7.396  8.53E-07  1.56E-04  0.00E+00  0.00E+00  0.00E+00  0.00E+00  8.53E-07  1.56E-04       NaN  0.00000
   1354.    7.386  7.62E-07  1.40E-04  0.00E+00  0.00E+00  0.00E+00  0.00E+00  7.62E-07  1.40E-04       NaN  0.00000
   1356.    7.375  7.33E-07  1.35E-04  0.00E+00  0.00E+00  0.00E+00  0.00E+00  7.33E-07  1.35E-04       NaN  0.00000
   1358.    7.364  7.60E-07  1.40E-04  0.00E+00  0.00E+00  0.00E+00  0.00E+00  7.60E-07  1.40E-04       NaN  0.00000
   1360.    7.353  6.63E-07  1.23E-04  0.00E+00  0.00E+00  0.00E+00  0.00E+00  6.63E-07  1.23E-04       NaN  0.00000
   1362.    7.342  5.21E-07  9.66E-05  0.00E+00  0.00E+00  0.00E+00  0.00E+00  5.21E-07  9.66E-05       NaN  0.00000
   1364.    7.331  5.62E-07  1.04E-04  0.00E+00  0.00E+00  0.00E+00  0.00E+00  5.62E-07  1.04E-04       NaN  0.00000
   1366.    7.321  6.90E-07  1.29E-04  0.00E+00  0.00E+00  0.00E+00  0.00E+00  6.90E-07  1.29E-04       NaN  0.00000
   1368.    7.310  6.17E-07  1.15E-04  0.00E+00  0.00E+00  0.00E+00  0.00E+00  6.17E-07  1.15E-04       NaN  0.00000
   1370.    7.299  5.99E-07  1.12E-04  0.00E+00  0.00E+00  0.00E+00  0.00E+00  5.99E-07  1.12E-04       NaN  0.00000
   1372.    7.289  5.57E-07  1.05E-04  0.00E+00  0.00E+00  0.00E+00  0.00E+00  5.57E-07  1.05E-04       NaN  0.00000
   1374.    7.278  4.31E-07  8.14E-05  0.00E+00  0.00E+00  0.00E+00  0.00E+00  4.31E-07  8.14E-05       NaN  0.00000
   1376.    7.267  4.77E-07  9.03E-05  0.00E+00  0.00E+00  0.00E+00  0.00E+00  4.77E-07  9.03E-05       NaN  0.00000
   1378.    7.257  5.66E-07  1.07E-04  0.00E+00  0.00E+00  0.00E+00  0.00E+00  5.66E-07  1.07E-04       NaN  0.00000
   1380.    7.246  6.04E-07  1.15E-04  0.00E+00  0.00E+00  0.00E+00  0.00E+00  6.04E-07  1.15E-04       NaN  0.00000
   1382.    7.236  6.52E-07  1.25E-04  0.00E+00  0.00E+00  0.00E+00  0.00E+00  6.52E-07  1.25E-04       NaN  0.00000
   1384.    7.225  6.17E-07  1.18E-04  0.00E+00  0.00E+00  0.00E+00  0.00E+00  6.17E-07  1.18E-04       NaN  0.00000
   1386.    7.215  4.86E-07  9.33E-05  0.00E+00  0.00E+00  0.00E+00  0.00E+00  4.86E-07  9.33E-05       NaN  0.00000
   1388.    7.205  4.34E-07  8.37E-05  0.00E+00  0.00E+00  0.00E+00  0.00E+00  4.34E-07  8.37E-05       NaN  0.00000
   1390.    7.194  5.14E-07  9.94E-05  0.00E+00  0.00E+00  0.00E+00  0.00E+00  5.14E-07  9.94E-05       NaN  0.00000
   1392.    7.184  5.01E-07  9.70E-05  0.00E+00  0.00E+00  0.00E+00  0.00E+00  5.01E-07  9.70E-05       NaN  0.00000
   1394.    7.174  3.94E-07  7.65E-05  0.00E+00  0.00E+00  0.00E+00  0.00E+00  3.94E-07  7.65E-05       NaN  0.00000
   1396.    7.163  3.76E-07  7.33E-05  0.00E+00  0.00E+00  0.00E+00  0.00E+00  3.76E-07  7.33E-05       NaN  0.00000
   1398.    7.153  3.84E-07  7.50E-05  0.00E+00  0.00E+00  0.00E+00  0.00E+00  3.84E-07  7.50E-05       NaN  0.00000
   1400.    7.143  3.93E-07  7.70E-05  0.00E+00  0.00E+00  0.00E+00  0.00E+00  3.93E-07  7.70E-05       NaN  0.00000
  iv         1405
1                                             RADIANCE(WATTS/CM2-STER-XXX)
0  FREQ   WAVLEN    PATH THERMAL      SURFACE EMISSION    SURFACE REFLECTED     TOTAL RADIANCE   INTEGRAL    TOTAL
  (CM-1) (MICRN)    (CM-1)   (MICRN)    (CM-1)   (MICRN)    (CM-1)   (MICRN)    (CM-1)   (MICRN)    (CM-1)   TRANS

   1402.    7.133  4.77E-07  9.38E-05  0.00E+00  0.00E+00  0.00E+00  0.00E+00  4.77E-07  9.38E-05       NaN  0.00000
   1404.    7.123  4.28E-07  8.43E-05  0.00E+00  0.00E+00  0.00E+00  0.00E+00  4.28E-07  8.43E-05       NaN  0.00000
   1406.    7.112  4.66E-07  9.22E-05  0.00E+00  0.00E+00  0.00E+00  0.00E+00  4.66E-07  9.22E-05       NaN  0.00000
   1408.    7.102  5.38E-07  1.07E-04  0.00E+00  0.00E+00  0.00E+00  0.00E+00  5.38E-07  1.07E-04       NaN  0.00000
   1410.    7.092  4.99E-07  9.92E-05  0.00E+00  0.00E+00  0.00E+00  0.00E+00  4.99E-07  9.92E-05       NaN  0.00000
   1412.    7.082  4.75E-07  9.47E-05  0.00E+00  0.00E+00  0.00E+00  0.00E+00  4.75E-07  9.47E-05       NaN  0.00000
   1414.    7.072  4.76E-07  9.52E-05  0.00E+00  0.00E+00  0.00E+00  0.00E+00  4.76E-07  9.52E-05       NaN  0.00000
   1416.    7.062  3.98E-07  7.98E-05  0.00E+00  0.00E+00  0.00E+00  0.00E+00  3.98E-07  7.98E-05       NaN  0.00000
   1418.    7.052  3.24E-07  6.52E-05  0.00E+00  0.00E+00  0.00E+00  0.00E+00  3.24E-07  6.52E-05       NaN  0.00000
   1420.    7.042  3.25E-07  6.56E-05  0.00E+00  0.00E+00  0.00E+00  0.00E+00  3.25E-07  6.56E-05       NaN  0.00000
   1422.    7.032  3.48E-07  7.03E-05  0.00E+00  0.00E+00  0.00E+00  0.00E+00  3.48E-07  7.03E-05       NaN  0.00000
   1424.    7.022  3.52E-07  7.13E-05  0.00E+00  0.00E+00  0.00E+00  0.00E+00  3.52E-07  7.13E-05       NaN  0.00000
   1426.    7.013  4.09E-07  8.32E-05  0.00E+00  0.00E+00  0.00E+00  0.00E+00  4.09E-07  8.32E-05       NaN  0.00000
   1428.    7.003  3.77E-07  7.68E-05  0.00E+00  0.00E+00  0.00E+00  0.00E+00  3.77E-07  7.68E-05       NaN  0.00000
   1430.    6.993  3.29E-07  6.72E-05  0.00E+00  0.00E+00  0.00E+00  0.00E+00  3.29E-07  6.72E-05       NaN  0.00000
   1432.    6.983  3.60E-07  7.38E-05  0.00E+00  0.00E+00  0.00E+00  0.00E+00  3.60E-07  7.38E-05       NaN  0.00000
   1434.    6.974  3.35E-07  6.88E-05  0.00E+00  0.00E+00  0.00E+00  0.00E+00  3.35E-07  6.88E-05       NaN  0.00000
   1436.    6.964  2.98E-07  6.15E-05  0.00E+00  0.00E+00  0.00E+00  0.00E+00  2.98E-07  6.15E-05       NaN  0.00000
   1438.    6.954  3.26E-07  6.74E-05  0.00E+00  0.00E+00  0.00E+00  0.00E+00  3.26E-07  6.74E-05       NaN  0.00000
   1440.    6.944  3.90E-07  8.09E-05  0.00E+00  0.00E+00  0.00E+00  0.00E+00  3.90E-07  8.09E-05       NaN  0.00000
   1442.    6.935  4.26E-07  8.85E-05  0.00E+00  0.00E+00  0.00E+00  0.00E+00  4.26E-07  8.85E-05       NaN  0.00000
   1444.    6.925  4.13E-07  8.61E-05  0.00E+00  0.00E+00  0.00E+00  0.00E+00  4.13E-07  8.61E-05       NaN  0.00000
   1446.    6.916  3.36E-07  7.03E-05  0.00E+00  0.00E+00  0.00E+00  0.00E+00  3.36E-07  7.03E-05       NaN  0.00000
   1448.    6.906  3.02E-07  6.33E-05  0.00E+00  0.00E+00  0.00E+00  0.00E+00  3.02E-07  6.33E-05       NaN  0.00000
   1450.    6.897  3.38E-07  7.12E-05  0.00E+00  0.00E+00  0.00E+00  0.00E+00  3.38E-07  7.12E-05       NaN  0.00000
   1452.    6.887  3.17E-07  6.69E-05  0.00E+00  0.00E+00  0.00E+00  0.00E+00  3.17E-07  6.69E-05       NaN  0.00000
   1454.    6.878  2.70E-07  5.71E-05  0.00E+00  0.00E+00  0.00E+00  0.00E+00  2.70E-07  5.71E-05       NaN  0.00000
   1456.    6.868  2.58E-07  5.46E-05  0.00E+00  0.00E+00  0.00E+00  0.00E+00  2.58E-07  5.46E-05       NaN  0.00000
   1458.    6.859  2.69E-07  5.72E-05  0.00E+00  0.00E+00  0.00E+00  0.00E+00  2.69E-07  5.72E-05       NaN  0.00000
   1460.    6.849  2.58E-07  5.50E-05  0.00E+00  0.00E+00  0.00E+00  0.00E+00  2.58E-07  5.50E-05       NaN  0.00000
   1462.    6.840  2.74E-07  5.85E-05  0.00E+00  0.00E+00  0.00E+00  0.00E+00  2.74E-07  5.85E-05       NaN  0.00000
   1464.    6.831  2.37E-07  5.07E-05  0.00E+00  0.00E+00  0.00E+00  0.00E+00  2.37E-07  5.07E-05       NaN  0.00000
   1466.    6.821  2.55E-07  5.47E-05  0.00E+00  0.00E+00  0.00E+00  0.00E+00  2.55E-07  5.47E-05       NaN  0.00000
   1468.    6.812  2.88E-07  6.20E-05  0.00E+00  0.00E+00  0.00E+00  0.00E+00  2.88E-07  6.20E-05       NaN  0.00000
   1470.    6.803  2.71E-07  5.86E-05  0.00E+00  0.00E+00  0.00E+00  0.00E+00  2.71E-07  5.86E-05       NaN  0.00000
   1472.    6.793  2.30E-07  4.99E-05  0.00E+00  0.00E+00  0.00E+00  0.00E+00  2.30E-07  4.99E-05       NaN  0.00000
   1474.    6.784  2.27E-07  4.93E-05  0.00E+00  0.00E+00  0.00E+00  0.00E+00  2.27E-07  4.93E-05       NaN  0.00000
   1476.    6.775  2.44E-07  5.32E-05  0.00E+00  0.00E+00  0.00E+00  0.00E+00  2.44E-07  5.32E-05       NaN  0.00000
   1478.    6.766  2.81E-07  6.14E-05  0.00E+00  0.00E+00  0.00E+00  0.00E+00  2.81E-07  6.14E-05       NaN  0.00000
   1480.    6.757  2.90E-07  6.34E-05  0.00E+00  0.00E+00  0.00E+00  0.00E+00  2.90E-07  6.34E-05       NaN  0.00000
   1482.    6.748  2.79E-07  6.13E-05  0.00E+00  0.00E+00  0.00E+00  0.00E+00  2.79E-07  6.13E-05       NaN  0.00000
   1484.    6.739  2.84E-07  6.26E-05  0.00E+00  0.00E+00  0.00E+00  0.00E+00  2.84E-07  6.26E-05       NaN  0.00000
   1486.    6.729  2.41E-07  5.32E-05  0.00E+00  0.00E+00  0.00E+00  0.00E+00  2.41E-07  5.32E-05       NaN  0.00000
   1488.    6.720  2.01E-07  4.45E-05  0.00E+00  0.00E+00  0.00E+00  0.00E+00  2.01E-07  4.45E-05       NaN  0.00000
   1490.    6.711  2.08E-07  4.62E-05  0.00E+00  0.00E+00  0.00E+00  0.00E+00  2.08E-07  4.62E-05       NaN  0.00000
   1492.    6.702  2.32E-07  5.16E-05  0.00E+00  0.00E+00  0.00E+00  0.00E+00  2.32E-07  5.16E-05       NaN  0.00000
   1494.    6.693  2.33E-07  5.19E-05  0.00E+00  0.00E+00  0.00E+00  0.00E+00  2.33E-07  5.19E-05       NaN  0.00000
   1496.    6.684  2.00E-07  4.48E-05  0.00E+00  0.00E+00  0.00E+00  0.00E+00  2.00E-07  4.48E-05       NaN  0.00000
   1498.    6.676  1.83E-07  4.11E-05  0.00E+00  0.00E+00  0.00E+00  0.00E+00  1.83E-07  4.11E-05       NaN  0.00000
   1500.    6.667  2.07E-07  4.66E-05  0.00E+00  0.00E+00  0.00E+00  0.00E+00  2.07E-07  4.66E-05       NaN  0.00000
  iv         1505
1                                             RADIANCE(WATTS/CM2-STER-XXX)
0  FREQ   WAVLEN    PATH THERMAL      SURFACE EMISSION    SURFACE REFLECTED     TOTAL RADIANCE   INTEGRAL    TOTAL
  (CM-1) (MICRN)    (CM-1)   (MICRN)    (CM-1)   (MICRN)    (CM-1)   (MICRN)    (CM-1)   (MICRN)    (CM-1)   TRANS

   1502.    6.658  2.05E-07  4.62E-05  0.00E+00  0.00E+00  0.00E+00  0.00E+00  2.05E-07  4.62E-05       NaN  0.00000
   1504.    6.649  1.88E-07  4.25E-05  0.00E+00  0.00E+00  0.00E+00  0.00E+00  1.88E-07  4.25E-05       NaN  0.00000
   1506.    6.640  2.37E-07  5.38E-05  0.00E+00  0.00E+00  0.00E+00  0.00E+00  2.37E-07  5.38E-05       NaN  0.00000
   1508.    6.631  2.33E-07  5.30E-05  0.00E+00  0.00E+00  0.00E+00  0.00E+00  2.33E-07  5.30E-05       NaN  0.00000
   1510.    6.623  2.01E-07  4.58E-05  0.00E+00  0.00E+00  0.00E+00  0.00E+00  2.01E-07  4.58E-05       NaN  0.00000
   1512.    6.614  2.00E-07  4.58E-05  0.00E+00  0.00E+00  0.00E+00  0.00E+00  2.00E-07  4.58E-05       NaN  0.00000
   1514.    6.605  1.93E-07  4.43E-05  0.00E+00  0.00E+00  0.00E+00  0.00E+00  1.93E-07  4.43E-05       NaN  0.00000
   1516.    6.596  1.96E-07  4.50E-05  0.00E+00  0.00E+00  0.00E+00  0.00E+00  1.96E-07  4.50E-05       NaN  0.00000
   1518.    6.588  1.89E-07  4.35E-05  0.00E+00  0.00E+00  0.00E+00  0.00E+00  1.89E-07  4.35E-05       NaN  0.00000
   1520.    6.579  2.03E-07  4.69E-05  0.00E+00  0.00E+00  0.00E+00  0.00E+00  2.03E-07  4.69E-05       NaN  0.00000
   1522.    6.570  1.89E-07  4.38E-05  0.00E+00  0.00E+00  0.00E+00  0.00E+00  1.89E-07  4.38E-05       NaN  0.00000
   1524.    6.562  1.73E-07  4.01E-05  0.00E+00  0.00E+00  0.00E+00  0.00E+00  1.73E-07  4.01E-05       NaN  0.00000
   1526.    6.553  1.66E-07  3.87E-05  0.00E+00  0.00E+00  0.00E+00  0.00E+00  1.66E-07  3.87E-05       NaN  0.00000
   1528.    6.545  1.68E-07  3.93E-05  0.00E+00  0.00E+00  0.00E+00  0.00E+00  1.68E-07  3.93E-05       NaN  0.00000
   1530.    6.536  1.81E-07  4.24E-05  0.00E+00  0.00E+00  0.00E+00  0.00E+00  1.81E-07  4.24E-05       NaN  0.00000
   1532.    6.527  1.80E-07  4.24E-05  0.00E+00  0.00E+00  0.00E+00  0.00E+00  1.80E-07  4.24E-05       NaN  0.00000
   1534.    6.519  1.79E-07  4.20E-05  0.00E+00  0.00E+00  0.00E+00  0.00E+00  1.79E-07  4.20E-05       NaN  0.00000
   1536.    6.510  1.62E-07  3.82E-05  0.00E+00  0.00E+00  0.00E+00  0.00E+00  1.62E-07  3.82E-05       NaN  0.00000
   1538.    6.502  1.96E-07  4.64E-05  0.00E+00  0.00E+00  0.00E+00  0.00E+00  1.96E-07  4.64E-05       NaN  0.00000
   1540.    6.494  2.20E-07  5.23E-05  0.00E+00  0.00E+00  0.00E+00  0.00E+00  2.20E-07  5.23E-05       NaN  0.00000
   1542.    6.485  1.87E-07  4.46E-05  0.00E+00  0.00E+00  0.00E+00  0.00E+00  1.87E-07  4.46E-05       NaN  0.00000
   1544.    6.477  1.63E-07  3.90E-05  0.00E+00  0.00E+00  0.00E+00  0.00E+00  1.63E-07  3.90E-05       NaN  0.00000
   1546.    6.468  1.61E-07  3.85E-05  0.00E+00  0.00E+00  0.00E+00  0.00E+00  1.61E-07  3.85E-05       NaN  0.00000
   1548.    6.460  1.72E-07  4.12E-05  0.00E+00  0.00E+00  0.00E+00  0.00E+00  1.72E-07  4.12E-05       NaN  0.00000
   1550.    6.452  1.70E-07  4.08E-05  0.00E+00  0.00E+00  0.00E+00  0.00E+00  1.70E-07  4.08E-05       NaN  0.00000
   1552.    6.443  1.63E-07  3.92E-05  0.00E+00  0.00E+00  0.00E+00  0.00E+00  1.63E-07  3.92E-05       NaN  0.00000
   1554.    6.435  1.56E-07  3.76E-05  0.00E+00  0.00E+00  0.00E+00  0.00E+00  1.56E-07  3.76E-05       NaN  0.00000
   1556.    6.427  1.51E-07  3.66E-05  0.00E+00  0.00E+00  0.00E+00  0.00E+00  1.51E-07  3.66E-05       NaN  0.00000
   1558.    6.418  2.06E-07  4.99E-05  0.00E+00  0.00E+00  0.00E+00  0.00E+00  2.06E-07  4.99E-05       NaN  0.00000
   1560.    6.410  2.05E-07  4.98E-05  0.00E+00  0.00E+00  0.00E+00  0.00E+00  2.05E-07  4.98E-05       NaN  0.00000
   1562.    6.402  1.38E-07  3.38E-05  0.00E+00  0.00E+00  0.00E+00  0.00E+00  1.38E-07  3.38E-05       NaN  0.00000
   1564.    6.394  1.35E-07  3.29E-05  0.00E+00  0.00E+00  0.00E+00  0.00E+00  1.35E-07  3.29E-05       NaN  0.00000
   1566.    6.386  1.44E-07  3.54E-05  0.00E+00  0.00E+00  0.00E+00  0.00E+00  1.44E-07  3.54E-05       NaN  0.00000
   1568.    6.378  1.41E-07  3.47E-05  0.00E+00  0.00E+00  0.00E+00  0.00E+00  1.41E-07  3.47E-05       NaN  0.00000
   1570.    6.369  1.49E-07  3.68E-05  0.00E+00  0.00E+00  0.00E+00  0.00E+00  1.49E-07  3.68E-05       NaN  0.00000
   1572.    6.361  1.44E-07  3.56E-05  0.00E+00  0.00E+00  0.00E+00  0.00E+00  1.44E-07  3.56E-05       NaN  0.00000
   1574.    6.353  1.38E-07  3.41E-05  0.00E+00  0.00E+00  0.00E+00  0.00E+00  1.38E-07  3.41E-05       NaN  0.00000
   1576.    6.345  1.48E-07  3.68E-05  0.00E+00  0.00E+00  0.00E+00  0.00E+00  1.48E-07  3.68E-05       NaN  0.00000
   1578.    6.337  1.39E-07  3.45E-05  0.00E+00  0.00E+00  0.00E+00  0.00E+00  1.39E-07  3.45E-05       NaN  0.00000
   1580.    6.329  1.61E-07  4.01E-05  0.00E+00  0.00E+00  0.00E+00  0.00E+00  1.61E-07  4.01E-05       NaN  0.00000
   1582.    6.321  1.85E-07  4.63E-05  0.00E+00  0.00E+00  0.00E+00  0.00E+00  1.85E-07  4.63E-05       NaN  0.00000
   1584.    6.313  1.99E-07  4.99E-05  0.00E+00  0.00E+00  0.00E+00  0.00E+00  1.99E-07  4.99E-05       NaN  0.00000
   1586.    6.305  2.05E-07  5.16E-05  0.00E+00  0.00E+00  0.00E+00  0.00E+00  2.05E-07  5.16E-05       NaN  0.00000
   1588.    6.297  2.01E-07  5.08E-05  0.00E+00  0.00E+00  0.00E+00  0.00E+00  2.01E-07  5.08E-05       NaN  0.00000
   1590.    6.289  1.85E-07  4.68E-05  0.00E+00  0.00E+00  0.00E+00  0.00E+00  1.85E-07  4.68E-05       NaN  0.00000
   1592.    6.281  1.77E-07  4.49E-05  0.00E+00  0.00E+00  0.00E+00  0.00E+00  1.77E-07  4.49E-05       NaN  0.00000
   1594.    6.274  1.64E-07  4.16E-05  0.00E+00  0.00E+00  0.00E+00  0.00E+00  1.64E-07  4.16E-05       NaN  0.00000
   1596.    6.266  1.68E-07  4.29E-05  0.00E+00  0.00E+00  0.00E+00  0.00E+00  1.68E-07  4.29E-05       NaN  0.00000
   1598.    6.258  1.95E-07  4.98E-05  0.00E+00  0.00E+00  0.00E+00  0.00E+00  1.95E-07  4.98E-05       NaN  0.00000
   1600.    6.250  1.86E-07  4.77E-05  0.00E+00  0.00E+00  0.00E+00  0.00E+00  1.86E-07  4.77E-05       NaN  0.00000
  iv         1605
1                                             RADIANCE(WATTS/CM2-STER-XXX)
0  FREQ   WAVLEN    PATH THERMAL      SURFACE EMISSION    SURFACE REFLECTED     TOTAL RADIANCE   INTEGRAL    TOTAL
  (CM-1) (MICRN)    (CM-1)   (MICRN)    (CM-1)   (MICRN)    (CM-1)   (MICRN)    (CM-1)   (MICRN)    (CM-1)   TRANS

   1602.    6.242  1.60E-07  4.12E-05  0.00E+00  0.00E+00  0.00E+00  0.00E+00  1.60E-07  4.12E-05       NaN  0.00000
   1604.    6.234  1.67E-07  4.28E-05  0.00E+00  0.00E+00  0.00E+00  0.00E+00  1.67E-07  4.28E-05       NaN  0.00000
   1606.    6.227  1.67E-07  4.31E-05  0.00E+00  0.00E+00  0.00E+00  0.00E+00  1.67E-07  4.31E-05       NaN  0.00000
   1608.    6.219  1.43E-07  3.69E-05  0.00E+00  0.00E+00  0.00E+00  0.00E+00  1.43E-07  3.69E-05       NaN  0.00000
   1610.    6.211  1.42E-07  3.68E-05  0.00E+00  0.00E+00  0.00E+00  0.00E+00  1.42E-07  3.68E-05       NaN  0.00000
   1612.    6.203  1.50E-07  3.90E-05  0.00E+00  0.00E+00  0.00E+00  0.00E+00  1.50E-07  3.90E-05       NaN  0.00000
   1614.    6.196  1.22E-07  3.17E-05  0.00E+00  0.00E+00  0.00E+00  0.00E+00  1.22E-07  3.17E-05       NaN  0.00000
   1616.    6.188  1.13E-07  2.95E-05  0.00E+00  0.00E+00  0.00E+00  0.00E+00  1.13E-07  2.95E-05       NaN  0.00000
   1618.    6.180  1.15E-07  3.02E-05  0.00E+00  0.00E+00  0.00E+00  0.00E+00  1.15E-07  3.02E-05       NaN  0.00000
   1620.    6.173  1.14E-07  3.00E-05  0.00E+00  0.00E+00  0.00E+00  0.00E+00  1.14E-07  3.00E-05       NaN  0.00000
   1622.    6.165  1.14E-07  2.99E-05  0.00E+00  0.00E+00  0.00E+00  0.00E+00  1.14E-07  2.99E-05       NaN  0.00000
   1624.    6.158  1.15E-07  3.02E-05  0.00E+00  0.00E+00  0.00E+00  0.00E+00  1.15E-07  3.02E-05       NaN  0.00000
   1626.    6.150  1.09E-07  2.87E-05  0.00E+00  0.00E+00  0.00E+00  0.00E+00  1.09E-07  2.87E-05       NaN  0.00000
   1628.    6.143  1.11E-07  2.94E-05  0.00E+00  0.00E+00  0.00E+00  0.00E+00  1.11E-07  2.94E-05       NaN  0.00000
   1630.    6.135  1.25E-07  3.33E-05  0.00E+00  0.00E+00  0.00E+00  0.00E+00  1.25E-07  3.33E-05       NaN  0.00000
   1632.    6.127  1.15E-07  3.07E-05  0.00E+00  0.00E+00  0.00E+00  0.00E+00  1.15E-07  3.07E-05       NaN  0.00000
   1634.    6.120  1.06E-07  2.83E-05  0.00E+00  0.00E+00  0.00E+00  0.00E+00  1.06E-07  2.83E-05       NaN  0.00000
   1636.    6.112  1.18E-07  3.17E-05  0.00E+00  0.00E+00  0.00E+00  0.00E+00  1.18E-07  3.17E-05       NaN  0.00000
   1638.    6.105  1.10E-07  2.94E-05  0.00E+00  0.00E+00  0.00E+00  0.00E+00  1.10E-07  2.94E-05       NaN  0.00000
   1640.    6.098  1.12E-07  3.01E-05  0.00E+00  0.00E+00  0.00E+00  0.00E+00  1.12E-07  3.01E-05       NaN  0.00000
   1642.    6.090  1.11E-07  2.99E-05  0.00E+00  0.00E+00  0.00E+00  0.00E+00  1.11E-07  2.99E-05       NaN  0.00000
   1644.    6.083  9.98E-08  2.70E-05  0.00E+00  0.00E+00  0.00E+00  0.00E+00  9.98E-08  2.70E-05       NaN  0.00000
   1646.    6.075  1.11E-07  3.00E-05  0.00E+00  0.00E+00  0.00E+00  0.00E+00  1.11E-07  3.00E-05       NaN  0.00000
   1648.    6.068  1.03E-07  2.79E-05  0.00E+00  0.00E+00  0.00E+00  0.00E+00  1.03E-07  2.79E-05       NaN  0.00000
   1650.    6.061  8.96E-08  2.44E-05  0.00E+00  0.00E+00  0.00E+00  0.00E+00  8.96E-08  2.44E-05       NaN  0.00000
   1652.    6.053  1.35E-07  3.68E-05  0.00E+00  0.00E+00  0.00E+00  0.00E+00  1.35E-07  3.68E-05       NaN  0.00000
   1654.    6.046  1.24E-07  3.38E-05  0.00E+00  0.00E+00  0.00E+00  0.00E+00  1.24E-07  3.38E-05       NaN  0.00000
   1656.    6.039  9.46E-08  2.59E-05  0.00E+00  0.00E+00  0.00E+00  0.00E+00  9.46E-08  2.59E-05       NaN  0.00000
   1658.    6.031  1.03E-07  2.84E-05  0.00E+00  0.00E+00  0.00E+00  0.00E+00  1.03E-07  2.84E-05       NaN  0.00000
   1660.    6.024  1.01E-07  2.78E-05  0.00E+00  0.00E+00  0.00E+00  0.00E+00  1.01E-07  2.78E-05       NaN  0.00000
   1662.    6.017  8.96E-08  2.47E-05  0.00E+00  0.00E+00  0.00E+00  0.00E+00  8.96E-08  2.47E-05       NaN  0.00000
   1664.    6.010  9.59E-08  2.65E-05  0.00E+00  0.00E+00  0.00E+00  0.00E+00  9.59E-08  2.65E-05       NaN  0.00000
   1666.    6.002  9.84E-08  2.73E-05  0.00E+00  0.00E+00  0.00E+00  0.00E+00  9.84E-08  2.73E-05       NaN  0.00000
   1668.    5.995  9.89E-08  2.75E-05  0.00E+00  0.00E+00  0.00E+00  0.00E+00  9.89E-08  2.75E-05       NaN  0.00000
   1670.    5.988  8.76E-08  2.44E-05  0.00E+00  0.00E+00  0.00E+00  0.00E+00  8.76E-08  2.44E-05       NaN  0.00000
   1672.    5.981  8.39E-08  2.34E-05  0.00E+00  0.00E+00  0.00E+00  0.00E+00  8.39E-08  2.34E-05       NaN  0.00000
   1674.    5.974  9.11E-08  2.55E-05  0.00E+00  0.00E+00  0.00E+00  0.00E+00  9.11E-08  2.55E-05       NaN  0.00000
   1676.    5.967  9.38E-08  2.64E-05  0.00E+00  0.00E+00  0.00E+00  0.00E+00  9.38E-08  2.64E-05       NaN  0.00000
   1678.    5.959  9.09E-08  2.56E-05  0.00E+00  0.00E+00  0.00E+00  0.00E+00  9.09E-08  2.56E-05       NaN  0.00000
   1680.    5.952  9.04E-08  2.55E-05  0.00E+00  0.00E+00  0.00E+00  0.00E+00  9.04E-08  2.55E-05       NaN  0.00000
   1682.    5.945  8.77E-08  2.48E-05  0.00E+00  0.00E+00  0.00E+00  0.00E+00  8.77E-08  2.48E-05       NaN  0.00000
   1684.    5.938  1.01E-07  2.87E-05  0.00E+00  0.00E+00  0.00E+00  0.00E+00  1.01E-07  2.87E-05       NaN  0.00000
   1686.    5.931  8.82E-08  2.51E-05  0.00E+00  0.00E+00  0.00E+00  0.00E+00  8.82E-08  2.51E-05       NaN  0.00000
   1688.    5.924  7.94E-08  2.26E-05  0.00E+00  0.00E+00  0.00E+00  0.00E+00  7.94E-08  2.26E-05       NaN  0.00000
   1690.    5.917  8.33E-08  2.38E-05  0.00E+00  0.00E+00  0.00E+00  0.00E+00  8.33E-08  2.38E-05       NaN  0.00000
   1692.    5.910  8.20E-08  2.35E-05  0.00E+00  0.00E+00  0.00E+00  0.00E+00  8.20E-08  2.35E-05       NaN  0.00000
   1694.    5.903  8.55E-08  2.45E-05  0.00E+00  0.00E+00  0.00E+00  0.00E+00  8.55E-08  2.45E-05       NaN  0.00000
   1696.    5.896  9.06E-08  2.61E-05  0.00E+00  0.00E+00  0.00E+00  0.00E+00  9.06E-08  2.61E-05       NaN  0.00000
   1698.    5.889  7.76E-08  2.24E-05  0.00E+00  0.00E+00  0.00E+00  0.00E+00  7.76E-08  2.24E-05       NaN  0.00000
   1700.    5.882  1.04E-07  3.02E-05  0.00E+00  0.00E+00  0.00E+00  0.00E+00  1.04E-07  3.02E-05       NaN  0.00000
  iv         1705
1                                             RADIANCE(WATTS/CM2-STER-XXX)
0  FREQ   WAVLEN    PATH THERMAL      SURFACE EMISSION    SURFACE REFLECTED     TOTAL RADIANCE   INTEGRAL    TOTAL
  (CM-1) (MICRN)    (CM-1)   (MICRN)    (CM-1)   (MICRN)    (CM-1)   (MICRN)    (CM-1)   (MICRN)    (CM-1)   TRANS

   1702.    5.875  9.13E-08  2.64E-05  0.00E+00  0.00E+00  0.00E+00  0.00E+00  9.13E-08  2.64E-05       NaN  0.00000
   1704.    5.869  7.40E-08  2.15E-05  0.00E+00  0.00E+00  0.00E+00  0.00E+00  7.40E-08  2.15E-05       NaN  0.00000
   1706.    5.862  7.61E-08  2.22E-05  0.00E+00  0.00E+00  0.00E+00  0.00E+00  7.61E-08  2.22E-05       NaN  0.00000
   1708.    5.855  8.04E-08  2.35E-05  0.00E+00  0.00E+00  0.00E+00  0.00E+00  8.04E-08  2.35E-05       NaN  0.00000
   1710.    5.848  8.53E-08  2.49E-05  0.00E+00  0.00E+00  0.00E+00  0.00E+00  8.53E-08  2.49E-05       NaN  0.00000
   1712.    5.841  8.58E-08  2.51E-05  0.00E+00  0.00E+00  0.00E+00  0.00E+00  8.58E-08  2.51E-05       NaN  0.00000
   1714.    5.834  7.82E-08  2.30E-05  0.00E+00  0.00E+00  0.00E+00  0.00E+00  7.82E-08  2.30E-05       NaN  0.00000
   1716.    5.828  7.25E-08  2.13E-05  0.00E+00  0.00E+00  0.00E+00  0.00E+00  7.25E-08  2.13E-05       NaN  0.00000
   1718.    5.821  7.23E-08  2.14E-05  0.00E+00  0.00E+00  0.00E+00  0.00E+00  7.23E-08  2.14E-05       NaN  0.00000
   1720.    5.814  7.91E-08  2.34E-05  0.00E+00  0.00E+00  0.00E+00  0.00E+00  7.91E-08  2.34E-05       NaN  0.00000
   1722.    5.807  8.60E-08  2.55E-05  0.00E+00  0.00E+00  0.00E+00  0.00E+00  8.60E-08  2.55E-05       NaN  0.00000
   1724.    5.800  9.32E-08  2.77E-05  0.00E+00  0.00E+00  0.00E+00  0.00E+00  9.32E-08  2.77E-05       NaN  0.00000
   1726.    5.794  9.84E-08  2.93E-05  0.00E+00  0.00E+00  0.00E+00  0.00E+00  9.84E-08  2.93E-05       NaN  0.00000
   1728.    5.787  9.35E-08  2.79E-05  0.00E+00  0.00E+00  0.00E+00  0.00E+00  9.35E-08  2.79E-05       NaN  0.00000
   1730.    5.780  8.03E-08  2.40E-05  0.00E+00  0.00E+00  0.00E+00  0.00E+00  8.03E-08  2.40E-05       NaN  0.00000
   1732.    5.774  7.10E-08  2.13E-05  0.00E+00  0.00E+00  0.00E+00  0.00E+00  7.10E-08  2.13E-05       NaN  0.00000
   1734.    5.767  7.26E-08  2.18E-05  0.00E+00  0.00E+00  0.00E+00  0.00E+00  7.26E-08  2.18E-05       NaN  0.00000
   1736.    5.760  6.90E-08  2.08E-05  0.00E+00  0.00E+00  0.00E+00  0.00E+00  6.90E-08  2.08E-05       NaN  0.00000
   1738.    5.754  6.35E-08  1.92E-05  0.00E+00  0.00E+00  0.00E+00  0.00E+00  6.35E-08  1.92E-05       NaN  0.00000
   1740.    5.747  6.74E-08  2.04E-05  0.00E+00  0.00E+00  0.00E+00  0.00E+00  6.74E-08  2.04E-05       NaN  0.00000
   1742.    5.741  7.13E-08  2.16E-05  0.00E+00  0.00E+00  0.00E+00  0.00E+00  7.13E-08  2.16E-05       NaN  0.00000
   1744.    5.734  7.15E-08  2.18E-05  0.00E+00  0.00E+00  0.00E+00  0.00E+00  7.15E-08  2.18E-05       NaN  0.00000
   1746.    5.727  6.94E-08  2.12E-05  0.00E+00  0.00E+00  0.00E+00  0.00E+00  6.94E-08  2.12E-05       NaN  0.00000
   1748.    5.721  6.49E-08  1.98E-05  0.00E+00  0.00E+00  0.00E+00  0.00E+00  6.49E-08  1.98E-05       NaN  0.00000
   1750.    5.714  6.82E-08  2.09E-05  0.00E+00  0.00E+00  0.00E+00  0.00E+00  6.82E-08  2.09E-05       NaN  0.00000
   1752.    5.708  7.35E-08  2.26E-05  0.00E+00  0.00E+00  0.00E+00  0.00E+00  7.35E-08  2.26E-05       NaN  0.00000
   1754.    5.701  8.39E-08  2.58E-05  0.00E+00  0.00E+00  0.00E+00  0.00E+00  8.39E-08  2.58E-05       NaN  0.00000
   1756.    5.695  7.69E-08  2.37E-05  0.00E+00  0.00E+00  0.00E+00  0.00E+00  7.69E-08  2.37E-05       NaN  0.00000
   1758.    5.688  7.71E-08  2.38E-05  0.00E+00  0.00E+00  0.00E+00  0.00E+00  7.71E-08  2.38E-05       NaN  0.00000
   1760.    5.682  7.43E-08  2.30E-05  0.00E+00  0.00E+00  0.00E+00  0.00E+00  7.43E-08  2.30E-05       NaN  0.00000
   1762.    5.675  6.80E-08  2.11E-05  0.00E+00  0.00E+00  0.00E+00  0.00E+00  6.80E-08  2.11E-05       NaN  0.00000
   1764.    5.669  8.08E-08  2.51E-05  0.00E+00  0.00E+00  0.00E+00  0.00E+00  8.08E-08  2.51E-05       NaN  0.00000
   1766.    5.663  8.67E-08  2.70E-05  0.00E+00  0.00E+00  0.00E+00  0.00E+00  8.67E-08  2.70E-05       NaN  0.00000
   1768.    5.656  7.20E-08  2.25E-05  0.00E+00  0.00E+00  0.00E+00  0.00E+00  7.20E-08  2.25E-05       NaN  0.00000
   1770.    5.650  5.99E-08  1.88E-05  0.00E+00  0.00E+00  0.00E+00  0.00E+00  5.99E-08  1.88E-05       NaN  0.00000
   1772.    5.643  5.45E-08  1.71E-05  0.00E+00  0.00E+00  0.00E+00  0.00E+00  5.45E-08  1.71E-05       NaN  0.00000
   1774.    5.637  5.68E-08  1.79E-05  0.00E+00  0.00E+00  0.00E+00  0.00E+00  5.68E-08  1.79E-05       NaN  0.00000
   1776.    5.631  6.70E-08  2.11E-05  0.00E+00  0.00E+00  0.00E+00  0.00E+00  6.70E-08  2.11E-05       NaN  0.00000
   1778.    5.624  7.67E-08  2.42E-05  0.00E+00  0.00E+00  0.00E+00  0.00E+00  7.67E-08  2.42E-05       NaN  0.00000
   1780.    5.618  6.71E-08  2.13E-05  0.00E+00  0.00E+00  0.00E+00  0.00E+00  6.71E-08  2.13E-05       NaN  0.00000
   1782.    5.612  7.30E-08  2.32E-05  0.00E+00  0.00E+00  0.00E+00  0.00E+00  7.30E-08  2.32E-05       NaN  0.00000
   1784.    5.605  7.76E-08  2.47E-05  0.00E+00  0.00E+00  0.00E+00  0.00E+00  7.76E-08  2.47E-05       NaN  0.00000
   1786.    5.599  8.64E-08  2.76E-05  0.00E+00  0.00E+00  0.00E+00  0.00E+00  8.64E-08  2.76E-05       NaN  0.00000
   1788.    5.593  8.80E-08  2.81E-05  0.00E+00  0.00E+00  0.00E+00  0.00E+00  8.80E-08  2.81E-05       NaN  0.00000
   1790.    5.587  6.64E-08  2.13E-05  0.00E+00  0.00E+00  0.00E+00  0.00E+00  6.64E-08  2.13E-05       NaN  0.00000
   1792.    5.580  5.11E-08  1.64E-05  0.00E+00  0.00E+00  0.00E+00  0.00E+00  5.11E-08  1.64E-05       NaN  0.00000
   1794.    5.574  5.73E-08  1.84E-05  0.00E+00  0.00E+00  0.00E+00  0.00E+00  5.73E-08  1.84E-05       NaN  0.00000
   1796.    5.568  6.60E-08  2.13E-05  0.00E+00  0.00E+00  0.00E+00  0.00E+00  6.60E-08  2.13E-05       NaN  0.00000
   1798.    5.562  6.65E-08  2.15E-05  0.00E+00  0.00E+00  0.00E+00  0.00E+00  6.65E-08  2.15E-05       NaN  0.00000
   1800.    5.556  5.84E-08  1.89E-05  0.00E+00  0.00E+00  0.00E+00  0.00E+00  5.84E-08  1.89E-05       NaN  0.00000
  iv         1805
1                                             RADIANCE(WATTS/CM2-STER-XXX)
0  FREQ   WAVLEN    PATH THERMAL      SURFACE EMISSION    SURFACE REFLECTED     TOTAL RADIANCE   INTEGRAL    TOTAL
  (CM-1) (MICRN)    (CM-1)   (MICRN)    (CM-1)   (MICRN)    (CM-1)   (MICRN)    (CM-1)   (MICRN)    (CM-1)   TRANS

   1802.    5.549  6.96E-08  2.26E-05  0.00E+00  0.00E+00  0.00E+00  0.00E+00  6.96E-08  2.26E-05       NaN  0.00000
   1804.    5.543  8.51E-08  2.77E-05  0.00E+00  0.00E+00  0.00E+00  0.00E+00  8.51E-08  2.77E-05       NaN  0.00000
   1806.    5.537  8.81E-08  2.87E-05  0.00E+00  0.00E+00  0.00E+00  0.00E+00  8.81E-08  2.87E-05       NaN  0.00000
   1808.    5.531  8.11E-08  2.65E-05  0.00E+00  0.00E+00  0.00E+00  0.00E+00  8.11E-08  2.65E-05       NaN  0.00000
   1810.    5.525  6.48E-08  2.12E-05  0.00E+00  0.00E+00  0.00E+00  0.00E+00  6.48E-08  2.12E-05       NaN  0.00000
   1812.    5.519  7.08E-08  2.32E-05  0.00E+00  0.00E+00  0.00E+00  0.00E+00  7.08E-08  2.32E-05       NaN  0.00000
   1814.    5.513  9.61E-08  3.16E-05  0.00E+00  0.00E+00  0.00E+00  0.00E+00  9.61E-08  3.16E-05       NaN  0.00000
   1816.    5.507  9.88E-08  3.26E-05  0.00E+00  0.00E+00  0.00E+00  0.00E+00  9.88E-08  3.26E-05       NaN  0.00000
   1818.    5.501  1.00E-07  3.32E-05  0.00E+00  0.00E+00  0.00E+00  0.00E+00  1.00E-07  3.32E-05       NaN  0.00000
   1820.    5.495  1.00E-07  3.31E-05  0.00E+00  0.00E+00  0.00E+00  0.00E+00  1.00E-07  3.31E-05       NaN  0.00000
   1822.    5.488  8.41E-08  2.79E-05  0.00E+00  0.00E+00  0.00E+00  0.00E+00  8.41E-08  2.79E-05       NaN  0.00000
   1824.    5.482  6.50E-08  2.16E-05  0.00E+00  0.00E+00  0.00E+00  0.00E+00  6.50E-08  2.16E-05       NaN  0.00000
   1826.    5.476  5.65E-08  1.88E-05  0.00E+00  0.00E+00  0.00E+00  0.00E+00  5.65E-08  1.88E-05       NaN  0.00000
   1828.    5.470  5.66E-08  1.89E-05  0.00E+00  0.00E+00  0.00E+00  0.00E+00  5.66E-08  1.89E-05       NaN  0.00000
   1830.    5.464  4.79E-08  1.60E-05  0.00E+00  0.00E+00  0.00E+00  0.00E+00  4.79E-08  1.60E-05       NaN  0.00000
   1832.    5.459  6.27E-08  2.10E-05  0.00E+00  0.00E+00  0.00E+00  0.00E+00  6.27E-08  2.10E-05       NaN  0.00000
   1834.    5.453  7.97E-08  2.68E-05  0.00E+00  0.00E+00  0.00E+00  0.00E+00  7.97E-08  2.68E-05       NaN  0.00000
   1836.    5.447  7.18E-08  2.42E-05  0.00E+00  0.00E+00  0.00E+00  0.00E+00  7.18E-08  2.42E-05       NaN  0.00000
   1838.    5.441  7.11E-08  2.40E-05  0.00E+00  0.00E+00  0.00E+00  0.00E+00  7.11E-08  2.40E-05       NaN  0.00000
   1840.    5.435  7.97E-08  2.70E-05  0.00E+00  0.00E+00  0.00E+00  0.00E+00  7.97E-08  2.70E-05       NaN  0.00000
   1842.    5.429  6.48E-08  2.20E-05  0.00E+00  0.00E+00  0.00E+00  0.00E+00  6.48E-08  2.20E-05       NaN  0.00000
   1844.    5.423  4.94E-08  1.68E-05  0.00E+00  0.00E+00  0.00E+00  0.00E+00  4.94E-08  1.68E-05       NaN  0.00000
   1846.    5.417  5.12E-08  1.74E-05  0.00E+00  0.00E+00  0.00E+00  0.00E+00  5.12E-08  1.74E-05       NaN  0.00000
   1848.    5.411  6.53E-08  2.23E-05  0.00E+00  0.00E+00  0.00E+00  0.00E+00  6.53E-08  2.23E-05       NaN  0.00000
   1850.    5.405  8.56E-08  2.93E-05  0.00E+00  0.00E+00  0.00E+00  0.00E+00  8.56E-08  2.93E-05       NaN  0.00000
   1852.    5.400  9.20E-08  3.15E-05  0.00E+00  0.00E+00  0.00E+00  0.00E+00  9.20E-08  3.15E-05       NaN  0.00000
   1854.    5.394  9.62E-08  3.31E-05  0.00E+00  0.00E+00  0.00E+00  0.00E+00  9.62E-08  3.31E-05       NaN  0.00000
   1856.    5.388  9.64E-08  3.32E-05  0.00E+00  0.00E+00  0.00E+00  0.00E+00  9.64E-08  3.32E-05       NaN  0.00000
   1858.    5.382  8.58E-08  2.96E-05  0.00E+00  0.00E+00  0.00E+00  0.00E+00  8.58E-08  2.96E-05       NaN  0.00000
   1860.    5.376  8.35E-08  2.89E-05  0.00E+00  0.00E+00  0.00E+00  0.00E+00  8.35E-08  2.89E-05       NaN  0.00000
   1862.    5.371  8.93E-08  3.10E-05  0.00E+00  0.00E+00  0.00E+00  0.00E+00  8.93E-08  3.10E-05       NaN  0.00000
   1864.    5.365  8.02E-08  2.79E-05  0.00E+00  0.00E+00  0.00E+00  0.00E+00  8.02E-08  2.79E-05       NaN  0.00000
   1866.    5.359  5.46E-08  1.90E-05  0.00E+00  0.00E+00  0.00E+00  0.00E+00  5.46E-08  1.90E-05       NaN  0.00000
   1868.    5.353  4.00E-08  1.40E-05  0.00E+00  0.00E+00  0.00E+00  0.00E+00  4.00E-08  1.40E-05       NaN  0.00000
   1870.    5.348  4.61E-08  1.61E-05  0.00E+00  0.00E+00  0.00E+00  0.00E+00  4.61E-08  1.61E-05       NaN  0.00000
   1872.    5.342  7.35E-08  2.58E-05  0.00E+00  0.00E+00  0.00E+00  0.00E+00  7.35E-08  2.58E-05       NaN  0.00000
   1874.    5.336  9.40E-08  3.30E-05  0.00E+00  0.00E+00  0.00E+00  0.00E+00  9.40E-08  3.30E-05       NaN  0.00000
   1876.    5.330  9.72E-08  3.42E-05  0.00E+00  0.00E+00  0.00E+00  0.00E+00  9.72E-08  3.42E-05       NaN  0.00000
   1878.    5.325  9.65E-08  3.40E-05  0.00E+00  0.00E+00  0.00E+00  0.00E+00  9.65E-08  3.40E-05       NaN  0.00000
   1880.    5.319  9.84E-08  3.48E-05  0.00E+00  0.00E+00  0.00E+00  0.00E+00  9.84E-08  3.48E-05       NaN  0.00000
   1882.    5.313  9.84E-08  3.48E-05  0.00E+00  0.00E+00  0.00E+00  0.00E+00  9.84E-08  3.48E-05       NaN  0.00000
   1884.    5.308  7.84E-08  2.78E-05  0.00E+00  0.00E+00  0.00E+00  0.00E+00  7.84E-08  2.78E-05       NaN  0.00000
   1886.    5.302  7.50E-08  2.67E-05  0.00E+00  0.00E+00  0.00E+00  0.00E+00  7.50E-08  2.67E-05       NaN  0.00000
   1888.    5.297  6.67E-08  2.38E-05  0.00E+00  0.00E+00  0.00E+00  0.00E+00  6.67E-08  2.38E-05       NaN  0.00000
   1890.    5.291  5.24E-08  1.87E-05  0.00E+00  0.00E+00  0.00E+00  0.00E+00  5.24E-08  1.87E-05       NaN  0.00000
   1892.    5.285  7.08E-08  2.53E-05  0.00E+00  0.00E+00  0.00E+00  0.00E+00  7.08E-08  2.53E-05       NaN  0.00000
   1894.    5.280  6.65E-08  2.38E-05  0.00E+00  0.00E+00  0.00E+00  0.00E+00  6.65E-08  2.38E-05       NaN  0.00000
   1896.    5.274  6.55E-08  2.35E-05  0.00E+00  0.00E+00  0.00E+00  0.00E+00  6.55E-08  2.35E-05       NaN  0.00000
   1898.    5.269  9.02E-08  3.25E-05  0.00E+00  0.00E+00  0.00E+00  0.00E+00  9.02E-08  3.25E-05       NaN  0.00000
   1900.    5.263  9.96E-08  3.60E-05  0.00E+00  0.00E+00  0.00E+00  0.00E+00  9.96E-08  3.60E-05       NaN  0.00000
  iv         1905
1                                             RADIANCE(WATTS/CM2-STER-XXX)
0  FREQ   WAVLEN    PATH THERMAL      SURFACE EMISSION    SURFACE REFLECTED     TOTAL RADIANCE   INTEGRAL    TOTAL
  (CM-1) (MICRN)    (CM-1)   (MICRN)    (CM-1)   (MICRN)    (CM-1)   (MICRN)    (CM-1)   (MICRN)    (CM-1)   TRANS

   1902.    5.258  9.01E-08  3.26E-05  0.00E+00  0.00E+00  0.00E+00  0.00E+00  9.01E-08  3.26E-05       NaN  0.00000
   1904.    5.252  7.46E-08  2.70E-05  0.00E+00  0.00E+00  0.00E+00  0.00E+00  7.46E-08  2.70E-05       NaN  0.00000
   1906.    5.247  7.12E-08  2.59E-05  0.00E+00  0.00E+00  0.00E+00  0.00E+00  7.12E-08  2.59E-05       NaN  0.00000
   1908.    5.241  5.48E-08  1.99E-05  0.00E+00  0.00E+00  0.00E+00  0.00E+00  5.48E-08  1.99E-05       NaN  0.00000
   1910.    5.236  5.53E-08  2.02E-05  0.00E+00  0.00E+00  0.00E+00  0.00E+00  5.53E-08  2.02E-05       NaN  0.00000
   1912.    5.230  7.74E-08  2.83E-05  0.00E+00  0.00E+00  0.00E+00  0.00E+00  7.74E-08  2.83E-05       NaN  0.00000
   1914.    5.225  8.27E-08  3.03E-05  0.00E+00  0.00E+00  0.00E+00  0.00E+00  8.27E-08  3.03E-05       NaN  0.00000
   1916.    5.219  6.78E-08  2.49E-05  0.00E+00  0.00E+00  0.00E+00  0.00E+00  6.78E-08  2.49E-05       NaN  0.00000
   1918.    5.214  4.59E-08  1.69E-05  0.00E+00  0.00E+00  0.00E+00  0.00E+00  4.59E-08  1.69E-05       NaN  0.00000
   1920.    5.208  5.14E-08  1.90E-05  0.00E+00  0.00E+00  0.00E+00  0.00E+00  5.14E-08  1.90E-05       NaN  0.00000
   1922.    5.203  4.90E-08  1.81E-05  0.00E+00  0.00E+00  0.00E+00  0.00E+00  4.90E-08  1.81E-05       NaN  0.00000
   1924.    5.198  5.44E-08  2.02E-05  0.00E+00  0.00E+00  0.00E+00  0.00E+00  5.44E-08  2.02E-05       NaN  0.00000
   1926.    5.192  8.10E-08  3.00E-05  0.00E+00  0.00E+00  0.00E+00  0.00E+00  8.10E-08  3.00E-05       NaN  0.00000
   1928.    5.187  9.36E-08  3.48E-05  0.00E+00  0.00E+00  0.00E+00  0.00E+00  9.36E-08  3.48E-05       NaN  0.00000
   1930.    5.181  9.65E-08  3.59E-05  0.00E+00  0.00E+00  0.00E+00  0.00E+00  9.65E-08  3.59E-05       NaN  0.00000
   1932.    5.176  8.47E-08  3.16E-05  0.00E+00  0.00E+00  0.00E+00  0.00E+00  8.47E-08  3.16E-05       NaN  0.00000
   1934.    5.171  8.48E-08  3.17E-05  0.00E+00  0.00E+00  0.00E+00  0.00E+00  8.48E-08  3.17E-05       NaN  0.00000
   1936.    5.165  9.25E-08  3.47E-05  0.00E+00  0.00E+00  0.00E+00  0.00E+00  9.25E-08  3.47E-05       NaN  0.00000
   1938.    5.160  8.76E-08  3.29E-05  0.00E+00  0.00E+00  0.00E+00  0.00E+00  8.76E-08  3.29E-05       NaN  0.00000
   1940.    5.155  7.44E-08  2.80E-05  0.00E+00  0.00E+00  0.00E+00  0.00E+00  7.44E-08  2.80E-05       NaN  0.00000
   1942.    5.149  4.90E-08  1.85E-05  0.00E+00  0.00E+00  0.00E+00  0.00E+00  4.90E-08  1.85E-05       NaN  0.00000
   1944.    5.144  4.27E-08  1.61E-05  0.00E+00  0.00E+00  0.00E+00  0.00E+00  4.27E-08  1.61E-05       NaN  0.00000
   1946.    5.139  5.04E-08  1.91E-05  0.00E+00  0.00E+00  0.00E+00  0.00E+00  5.04E-08  1.91E-05       NaN  0.00000
   1948.    5.133  7.29E-08  2.77E-05  0.00E+00  0.00E+00  0.00E+00  0.00E+00  7.29E-08  2.77E-05       NaN  0.00000
   1950.    5.128  8.58E-08  3.26E-05  0.00E+00  0.00E+00  0.00E+00  0.00E+00  8.58E-08  3.26E-05       NaN  0.00000
   1952.    5.123  8.93E-08  3.40E-05  0.00E+00  0.00E+00  0.00E+00  0.00E+00  8.93E-08  3.40E-05       NaN  0.00000
   1954.    5.118  7.46E-08  2.85E-05  0.00E+00  0.00E+00  0.00E+00  0.00E+00  7.46E-08  2.85E-05       NaN  0.00000
   1956.    5.112  6.85E-08  2.62E-05  0.00E+00  0.00E+00  0.00E+00  0.00E+00  6.85E-08  2.62E-05       NaN  0.00000
   1958.    5.107  8.45E-08  3.24E-05  0.00E+00  0.00E+00  0.00E+00  0.00E+00  8.45E-08  3.24E-05       NaN  0.00000
   1960.    5.102  8.02E-08  3.08E-05  0.00E+00  0.00E+00  0.00E+00  0.00E+00  8.02E-08  3.08E-05       NaN  0.00000
   1962.    5.097  7.71E-08  2.97E-05  0.00E+00  0.00E+00  0.00E+00  0.00E+00  7.71E-08  2.97E-05       NaN  0.00000
   1964.    5.092  8.02E-08  3.09E-05  0.00E+00  0.00E+00  0.00E+00  0.00E+00  8.02E-08  3.09E-05       NaN  0.00000
   1966.    5.086  5.45E-08  2.11E-05  0.00E+00  0.00E+00  0.00E+00  0.00E+00  5.45E-08  2.11E-05       NaN  0.00000
   1968.    5.081  5.59E-08  2.16E-05  0.00E+00  0.00E+00  0.00E+00  0.00E+00  5.59E-08  2.16E-05       NaN  0.00000
   1970.    5.076  8.33E-08  3.23E-05  0.00E+00  0.00E+00  0.00E+00  0.00E+00  8.33E-08  3.23E-05       NaN  0.00000
   1972.    5.071  9.45E-08  3.67E-05  0.00E+00  0.00E+00  0.00E+00  0.00E+00  9.45E-08  3.67E-05       NaN  0.00000
   1974.    5.066  9.29E-08  3.62E-05  0.00E+00  0.00E+00  0.00E+00  0.00E+00  9.29E-08  3.62E-05       NaN  0.00000
   1976.    5.061  8.43E-08  3.29E-05  0.00E+00  0.00E+00  0.00E+00  0.00E+00  8.43E-08  3.29E-05       NaN  0.00000
   1978.    5.056  9.05E-08  3.54E-05  0.00E+00  0.00E+00  0.00E+00  0.00E+00  9.05E-08  3.54E-05       NaN  0.00000
   1980.    5.051  9.39E-08  3.68E-05  0.00E+00  0.00E+00  0.00E+00  0.00E+00  9.39E-08  3.68E-05       NaN  0.00000
   1982.    5.045  9.15E-08  3.59E-05  0.00E+00  0.00E+00  0.00E+00  0.00E+00  9.15E-08  3.59E-05       NaN  0.00000
   1984.    5.040  8.98E-08  3.53E-05  0.00E+00  0.00E+00  0.00E+00  0.00E+00  8.98E-08  3.53E-05       NaN  0.00000
   1986.    5.035  7.69E-08  3.03E-05  0.00E+00  0.00E+00  0.00E+00  0.00E+00  7.69E-08  3.03E-05       NaN  0.00000
   1988.    5.030  5.79E-08  2.29E-05  0.00E+00  0.00E+00  0.00E+00  0.00E+00  5.79E-08  2.29E-05       NaN  0.00000
   1990.    5.025  5.30E-08  2.10E-05  0.00E+00  0.00E+00  0.00E+00  0.00E+00  5.30E-08  2.10E-05       NaN  0.00000
   1992.    5.020  4.23E-08  1.68E-05  0.00E+00  0.00E+00  0.00E+00  0.00E+00  4.23E-08  1.68E-05       NaN  0.00000
   1994.    5.015  6.07E-08  2.41E-05  0.00E+00  0.00E+00  0.00E+00  0.00E+00  6.07E-08  2.41E-05       NaN  0.00000
   1996.    5.010  8.07E-08  3.21E-05  0.00E+00  0.00E+00  0.00E+00  0.00E+00  8.07E-08  3.21E-05       NaN  0.00000
   1998.    5.005  7.01E-08  2.80E-05  0.00E+00  0.00E+00  0.00E+00  0.00E+00  7.01E-08  2.80E-05       NaN  0.00000
   2000.    5.000  7.43E-08  2.97E-05  0.00E+00  0.00E+00  0.00E+00  0.00E+00  7.43E-08  2.97E-05       NaN  0.00000
  iv         2005
1                                             RADIANCE(WATTS/CM2-STER-XXX)
0  FREQ   WAVLEN    PATH THERMAL      SURFACE EMISSION    SURFACE REFLECTED     TOTAL RADIANCE   INTEGRAL    TOTAL
  (CM-1) (MICRN)    (CM-1)   (MICRN)    (CM-1)   (MICRN)    (CM-1)   (MICRN)    (CM-1)   (MICRN)    (CM-1)   TRANS

   2002.    4.995  8.99E-08  3.60E-05  0.00E+00  0.00E+00  0.00E+00  0.00E+00  8.99E-08  3.60E-05       NaN  0.00000
   2004.    4.990  9.11E-08  3.66E-05  0.00E+00  0.00E+00  0.00E+00  0.00E+00  9.11E-08  3.66E-05       NaN  0.00000
   2006.    4.985  8.27E-08  3.33E-05  0.00E+00  0.00E+00  0.00E+00  0.00E+00  8.27E-08  3.33E-05       NaN  0.00000
   2008.    4.980  6.79E-08  2.74E-05  0.00E+00  0.00E+00  0.00E+00  0.00E+00  6.79E-08  2.74E-05       NaN  0.00000
   2010.    4.975  7.55E-08  3.05E-05  0.00E+00  0.00E+00  0.00E+00  0.00E+00  7.55E-08  3.05E-05       NaN  0.00000
   2012.    4.970  8.68E-08  3.51E-05  0.00E+00  0.00E+00  0.00E+00  0.00E+00  8.68E-08  3.51E-05       NaN  0.00000
   2014.    4.965  7.99E-08  3.24E-05  0.00E+00  0.00E+00  0.00E+00  0.00E+00  7.99E-08  3.24E-05       NaN  0.00000
   2016.    4.960  5.49E-08  2.23E-05  0.00E+00  0.00E+00  0.00E+00  0.00E+00  5.49E-08  2.23E-05       NaN  0.00000
   2018.    4.955  4.38E-08  1.78E-05  0.00E+00  0.00E+00  0.00E+00  0.00E+00  4.38E-08  1.78E-05       NaN  0.00000
   2020.    4.950  6.30E-08  2.57E-05  0.00E+00  0.00E+00  0.00E+00  0.00E+00  6.30E-08  2.57E-05       NaN  0.00000
   2022.    4.946  7.43E-08  3.04E-05  0.00E+00  0.00E+00  0.00E+00  0.00E+00  7.43E-08  3.04E-05       NaN  0.00000
   2024.    4.941  7.56E-08  3.10E-05  0.00E+00  0.00E+00  0.00E+00  0.00E+00  7.56E-08  3.10E-05       NaN  0.00000
   2026.    4.936  7.19E-08  2.95E-05  0.00E+00  0.00E+00  0.00E+00  0.00E+00  7.19E-08  2.95E-05       NaN  0.00000
   2028.    4.931  7.44E-08  3.06E-05  0.00E+00  0.00E+00  0.00E+00  0.00E+00  7.44E-08  3.06E-05       NaN  0.00000
   2030.    4.926  8.75E-08  3.61E-05  0.00E+00  0.00E+00  0.00E+00  0.00E+00  8.75E-08  3.61E-05       NaN  0.00000
   2032.    4.921  8.80E-08  3.63E-05  0.00E+00  0.00E+00  0.00E+00  0.00E+00  8.80E-08  3.63E-05       NaN  0.00000
   2034.    4.916  8.32E-08  3.44E-05  0.00E+00  0.00E+00  0.00E+00  0.00E+00  8.32E-08  3.44E-05       NaN  0.00000
   2036.    4.912  8.24E-08  3.42E-05  0.00E+00  0.00E+00  0.00E+00  0.00E+00  8.24E-08  3.42E-05       NaN  0.00000
   2038.    4.907  7.66E-08  3.18E-05  0.00E+00  0.00E+00  0.00E+00  0.00E+00  7.66E-08  3.18E-05       NaN  0.00000
   2040.    4.902  6.42E-08  2.67E-05  0.00E+00  0.00E+00  0.00E+00  0.00E+00  6.42E-08  2.67E-05       NaN  0.00000
   2042.    4.897  5.44E-08  2.27E-05  0.00E+00  0.00E+00  0.00E+00  0.00E+00  5.44E-08  2.27E-05       NaN  0.00000
   2044.    4.892  6.42E-08  2.68E-05  0.00E+00  0.00E+00  0.00E+00  0.00E+00  6.42E-08  2.68E-05       NaN  0.00000
   2046.    4.888  7.49E-08  3.14E-05  0.00E+00  0.00E+00  0.00E+00  0.00E+00  7.49E-08  3.14E-05       NaN  0.00000
   2048.    4.883  8.14E-08  3.41E-05  0.00E+00  0.00E+00  0.00E+00  0.00E+00  8.14E-08  3.41E-05       NaN  0.00000
   2050.    4.878  8.67E-08  3.64E-05  0.00E+00  0.00E+00  0.00E+00  0.00E+00  8.67E-08  3.64E-05       NaN  0.00000
   2052.    4.873  8.60E-08  3.62E-05  0.00E+00  0.00E+00  0.00E+00  0.00E+00  8.60E-08  3.62E-05       NaN  0.00000
   2054.    4.869  8.52E-08  3.59E-05  0.00E+00  0.00E+00  0.00E+00  0.00E+00  8.52E-08  3.59E-05       NaN  0.00000
   2056.    4.864  8.65E-08  3.65E-05  0.00E+00  0.00E+00  0.00E+00  0.00E+00  8.65E-08  3.65E-05       NaN  0.00000
   2058.    4.859  8.03E-08  3.40E-05  0.00E+00  0.00E+00  0.00E+00  0.00E+00  8.03E-08  3.40E-05       NaN  0.00000
   2060.    4.854  6.63E-08  2.82E-05  0.00E+00  0.00E+00  0.00E+00  0.00E+00  6.63E-08  2.82E-05       NaN  0.00000
   2062.    4.850  7.03E-08  2.99E-05  0.00E+00  0.00E+00  0.00E+00  0.00E+00  7.03E-08  2.99E-05       NaN  0.00000
   2064.    4.845  5.79E-08  2.46E-05  0.00E+00  0.00E+00  0.00E+00  0.00E+00  5.79E-08  2.46E-05       NaN  0.00000
   2066.    4.840  5.50E-08  2.35E-05  0.00E+00  0.00E+00  0.00E+00  0.00E+00  5.50E-08  2.35E-05       NaN  0.00000
   2068.    4.836  7.67E-08  3.28E-05  0.00E+00  0.00E+00  0.00E+00  0.00E+00  7.67E-08  3.28E-05       NaN  0.00000
   2070.    4.831  8.34E-08  3.58E-05  0.00E+00  0.00E+00  0.00E+00  0.00E+00  8.34E-08  3.58E-05       NaN  0.00000
   2072.    4.826  7.53E-08  3.23E-05  0.00E+00  0.00E+00  0.00E+00  0.00E+00  7.53E-08  3.23E-05       NaN  0.00000
   2074.    4.822  6.73E-08  2.90E-05  0.00E+00  0.00E+00  0.00E+00  0.00E+00  6.73E-08  2.90E-05       NaN  0.00000
   2076.    4.817  7.66E-08  3.30E-05  0.00E+00  0.00E+00  0.00E+00  0.00E+00  7.66E-08  3.30E-05       NaN  0.00000
   2078.    4.812  7.56E-08  3.27E-05  0.00E+00  0.00E+00  0.00E+00  0.00E+00  7.56E-08  3.27E-05       NaN  0.00000
   2080.    4.808  7.42E-08  3.21E-05  0.00E+00  0.00E+00  0.00E+00  0.00E+00  7.42E-08  3.21E-05       NaN  0.00000
   2082.    4.803  7.57E-08  3.28E-05  0.00E+00  0.00E+00  0.00E+00  0.00E+00  7.57E-08  3.28E-05       NaN  0.00000
   2084.    4.798  7.96E-08  3.45E-05  0.00E+00  0.00E+00  0.00E+00  0.00E+00  7.96E-08  3.45E-05       NaN  0.00000
   2086.    4.794  7.42E-08  3.23E-05  0.00E+00  0.00E+00  0.00E+00  0.00E+00  7.42E-08  3.23E-05       NaN  0.00000
   2088.    4.789  6.56E-08  2.86E-05  0.00E+00  0.00E+00  0.00E+00  0.00E+00  6.56E-08  2.86E-05       NaN  0.00000
   2090.    4.785  5.80E-08  2.53E-05  0.00E+00  0.00E+00  0.00E+00  0.00E+00  5.80E-08  2.53E-05       NaN  0.00000
   2092.    4.780  6.77E-08  2.96E-05  0.00E+00  0.00E+00  0.00E+00  0.00E+00  6.77E-08  2.96E-05       NaN  0.00000
   2094.    4.776  7.61E-08  3.34E-05  0.00E+00  0.00E+00  0.00E+00  0.00E+00  7.61E-08  3.34E-05       NaN  0.00000
   2096.    4.771  7.34E-08  3.22E-05  0.00E+00  0.00E+00  0.00E+00  0.00E+00  7.34E-08  3.22E-05       NaN  0.00000
   2098.    4.766  7.16E-08  3.15E-05  0.00E+00  0.00E+00  0.00E+00  0.00E+00  7.16E-08  3.15E-05       NaN  0.00000
   2100.    4.762  7.11E-08  3.13E-05  0.00E+00  0.00E+00  0.00E+00  0.00E+00  7.11E-08  3.13E-05       NaN  0.00000
  iv         2105
1                                             RADIANCE(WATTS/CM2-STER-XXX)
0  FREQ   WAVLEN    PATH THERMAL      SURFACE EMISSION    SURFACE REFLECTED     TOTAL RADIANCE   INTEGRAL    TOTAL
  (CM-1) (MICRN)    (CM-1)   (MICRN)    (CM-1)   (MICRN)    (CM-1)   (MICRN)    (CM-1)   (MICRN)    (CM-1)   TRANS

   2102.    4.757  7.59E-08  3.36E-05  0.00E+00  0.00E+00  0.00E+00  0.00E+00  7.59E-08  3.36E-05       NaN  0.00000
   2104.    4.753  7.55E-08  3.34E-05  0.00E+00  0.00E+00  0.00E+00  0.00E+00  7.55E-08  3.34E-05       NaN  0.00000
   2106.    4.748  6.76E-08  3.00E-05  0.00E+00  0.00E+00  0.00E+00  0.00E+00  6.76E-08  3.00E-05       NaN  0.00000
   2108.    4.744  7.16E-08  3.18E-05  0.00E+00  0.00E+00  0.00E+00  0.00E+00  7.16E-08  3.18E-05       NaN  0.00000
   2110.    4.739  7.70E-08  3.43E-05  0.00E+00  0.00E+00  0.00E+00  0.00E+00  7.70E-08  3.43E-05       NaN  0.00000
   2112.    4.735  7.49E-08  3.34E-05  0.00E+00  0.00E+00  0.00E+00  0.00E+00  7.49E-08  3.34E-05       NaN  0.00000
   2114.    4.730  6.02E-08  2.69E-05  0.00E+00  0.00E+00  0.00E+00  0.00E+00  6.02E-08  2.69E-05       NaN  0.00000
   2116.    4.726  6.13E-08  2.74E-05  0.00E+00  0.00E+00  0.00E+00  0.00E+00  6.13E-08  2.74E-05       NaN  0.00000
   2118.    4.721  7.47E-08  3.35E-05  0.00E+00  0.00E+00  0.00E+00  0.00E+00  7.47E-08  3.35E-05       NaN  0.00000
   2120.    4.717  7.23E-08  3.25E-05  0.00E+00  0.00E+00  0.00E+00  0.00E+00  7.23E-08  3.25E-05       NaN  0.00000
   2122.    4.713  6.80E-08  3.06E-05  0.00E+00  0.00E+00  0.00E+00  0.00E+00  6.80E-08  3.06E-05       NaN  0.00000
   2124.    4.708  6.55E-08  2.96E-05  0.00E+00  0.00E+00  0.00E+00  0.00E+00  6.55E-08  2.96E-05       NaN  0.00000
   2126.    4.704  6.96E-08  3.15E-05  5.61E-45  2.53E-42  0.00E+00  0.00E+00  6.96E-08  3.15E-05       NaN  0.00000
   2128.    4.699  7.49E-08  3.39E-05  1.26E-44  5.71E-42  0.00E+00  0.00E+00  7.49E-08  3.39E-05       NaN  0.00000
   2130.    4.695  7.41E-08  3.36E-05  1.12E-44  5.09E-42  0.00E+00  0.00E+00  7.41E-08  3.36E-05       NaN  0.00000
   2132.    4.690  7.38E-08  3.35E-05  7.01E-45  3.19E-42  0.00E+00  0.00E+00  7.38E-08  3.35E-05       NaN  0.00000
   2134.    4.686  7.07E-08  3.22E-05  1.40E-45  6.38E-43  0.00E+00  0.00E+00  7.07E-08  3.22E-05       NaN  0.00000
   2136.    4.682  5.58E-08  2.55E-05  0.00E+00  0.00E+00  0.00E+00  0.00E+00  5.58E-08  2.55E-05       NaN  0.00000
   2138.    4.677  5.17E-08  2.36E-05  0.00E+00  0.00E+00  0.00E+00  0.00E+00  5.17E-08  2.36E-05       NaN  0.00000
   2140.    4.673  6.26E-08  2.86E-05  0.00E+00  0.00E+00  0.00E+00  0.00E+00  6.26E-08  2.86E-05       NaN  0.00000
   2142.    4.669  6.99E-08  3.21E-05  0.00E+00  0.00E+00  0.00E+00  0.00E+00  6.99E-08  3.21E-05       NaN  0.00000
   2144.    4.664  6.54E-08  3.01E-05  0.00E+00  0.00E+00  0.00E+00  0.00E+00  6.54E-08  3.01E-05       NaN  0.00000
   2146.    4.660  5.98E-08  2.75E-05  0.00E+00  0.00E+00  0.00E+00  0.00E+00  5.98E-08  2.75E-05       NaN  0.00000
   2148.    4.655  6.38E-08  2.94E-05  0.00E+00  0.00E+00  0.00E+00  0.00E+00  6.38E-08  2.94E-05       NaN  0.00000
   2150.    4.651  6.81E-08  3.15E-05  1.40E-45  6.47E-43  0.00E+00  0.00E+00  6.81E-08  3.15E-05       NaN  0.00000
   2152.    4.647  6.45E-08  2.99E-05  0.00E+00  0.00E+00  0.00E+00  0.00E+00  6.45E-08  2.99E-05       NaN  0.00000
   2154.    4.643  6.44E-08  2.99E-05  0.00E+00  0.00E+00  0.00E+00  0.00E+00  6.44E-08  2.99E-05       NaN  0.00000
   2156.    4.638  6.52E-08  3.03E-05  0.00E+00  0.00E+00  0.00E+00  0.00E+00  6.52E-08  3.03E-05       NaN  0.00000
   2158.    4.634  6.60E-08  3.07E-05  2.80E-45  1.30E-42  0.00E+00  0.00E+00  6.60E-08  3.07E-05       NaN  0.00000
   2160.    4.630  6.50E-08  3.03E-05  2.80E-45  1.31E-42  0.00E+00  0.00E+00  6.50E-08  3.03E-05       NaN  0.00000
   2162.    4.625  5.81E-08  2.71E-05  0.00E+00  0.00E+00  0.00E+00  0.00E+00  5.81E-08  2.71E-05       NaN  0.00000
   2164.    4.621  6.31E-08  2.95E-05  5.61E-45  2.62E-42  0.00E+00  0.00E+00  6.31E-08  2.95E-05       NaN  0.00000
   2166.    4.617  6.73E-08  3.16E-05  2.52E-44  1.18E-41  0.00E+00  0.00E+00  6.73E-08  3.16E-05       NaN  0.00000
   2168.    4.613  6.75E-08  3.17E-05  1.71E-43  8.04E-41  0.00E+00  0.00E+00  6.75E-08  3.17E-05       NaN  0.00000
   2170.    4.608  6.39E-08  3.01E-05  1.75E-43  8.25E-41  0.00E+00  0.00E+00  6.39E-08  3.01E-05       NaN  0.00000
   2172.    4.604  6.21E-08  2.93E-05  4.20E-44  1.98E-41  0.00E+00  0.00E+00  6.21E-08  2.93E-05       NaN  0.00000
   2174.    4.600  6.55E-08  3.09E-05  1.05E-43  4.97E-41  0.00E+00  0.00E+00  6.55E-08  3.09E-05       NaN  0.00000
   2176.    4.596  6.59E-08  3.12E-05  2.35E-43  1.11E-40  0.00E+00  0.00E+00  6.59E-08  3.12E-05       NaN  0.00000
   2178.    4.591  6.56E-08  3.11E-05  2.06E-43  9.77E-41  0.00E+00  0.00E+00  6.56E-08  3.11E-05       NaN  0.00000
   2180.    4.587  6.21E-08  2.95E-05  2.10E-44  9.99E-42  0.00E+00  0.00E+00  6.21E-08  2.95E-05       NaN  0.00000
   2182.    4.583  6.19E-08  2.95E-05  2.38E-44  1.13E-41  0.00E+00  0.00E+00  6.19E-08  2.95E-05       NaN  0.00000
   2184.    4.579  6.20E-08  2.96E-05  2.52E-44  1.20E-41  0.00E+00  0.00E+00  6.20E-08  2.96E-05       NaN  0.00000
   2186.    4.575  5.81E-08  2.78E-05  1.40E-45  6.70E-43  0.00E+00  0.00E+00  5.81E-08  2.78E-05       NaN  0.00000
   2188.    4.570  5.94E-08  2.84E-05  4.20E-45  2.01E-42  0.00E+00  0.00E+00  5.94E-08  2.84E-05       NaN  0.00000
   2190.    4.566  6.23E-08  2.99E-05  3.36E-44  1.61E-41  0.00E+00  0.00E+00  6.23E-08  2.99E-05       NaN  0.00000
   2192.    4.562  6.14E-08  2.95E-05  4.62E-44  2.22E-41  0.00E+00  0.00E+00  6.14E-08  2.95E-05       NaN  0.00000
   2194.    4.558  6.06E-08  2.92E-05  1.61E-43  7.76E-41  0.00E+00  0.00E+00  6.06E-08  2.92E-05       NaN  0.00000
   2196.    4.554  6.24E-08  3.01E-05  6.40E-43  3.09E-40  0.00E+00  0.00E+00  6.24E-08  3.01E-05       NaN  0.00000
   2198.    4.550  6.04E-08  2.92E-05  3.69E-43  1.78E-40  0.00E+00  0.00E+00  6.04E-08  2.92E-05       NaN  0.00000
   2200.    4.545  5.79E-08  2.80E-05  6.87E-44  3.32E-41  0.00E+00  0.00E+00  5.79E-08  2.80E-05       NaN  0.00000
0INTEGRATED ABSORPTION FROM    2 TO 2200 CM-1 =       NaN CM-1
 AVERAGE TRANSMITTANCE =   NaN

0INTEGRATED RADIANCE =        NaN WATTS CM-2 STER-1
 MINIMUM RADIANCE    =  3.440E-09 WATTS CM-2 STER-1 (CM-1)-1 AT        4.0 CM-1
 MAXIMUM RADIANCE    =  7.401E-06 WATTS CM-2 STER-1 (CM-1)-1 AT      496.0 CM-1
 BOUNDARY TEMPERATURE =     299.70 K
 BOUNDARY EMISSIVITY =       0.971
0 CARD 5 *****    0