 *****  MODTRAN3 Version 1.3  12/1/95  *****
0 CARD 1  *****T   1    3    1    0    0    0    0    0    0    0    0    0   -1   0.000  -1.00
 co2mx co2rat ch4rat h2orat t_o3rat s_o3rat scalefreon    0.00000000       0.00000000       0.00000000       10.0000000       0.00000000       0.00000000       0.00000000    
0 CARD 2  *****    0    0    0    0    0    0     0.000     0.000     0.000     0.000     0.000
 ***ERROR RELHUM      0.7553E+03  AT ALT         0.000
 ***ERROR RELHUM      0.7277E+03  AT ALT         1.000
 ***ERROR RELHUM      0.7451E+03  AT ALT         2.000
 ***ERROR RELHUM      0.4825E+03  AT ALT         3.000
 ***ERROR RELHUM      0.3491E+03  AT ALT         4.000
 ***ERROR RELHUM      0.3771E+03  AT ALT         5.000
 ***ERROR RELHUM      0.3479E+03  AT ALT         6.000
 ***ERROR RELHUM      0.3198E+03  AT ALT         7.000
 ***ERROR RELHUM      0.2947E+03  AT ALT         8.000
 ***ERROR RELHUM      0.2535E+03  AT ALT         9.000
 ***ERROR RELHUM      0.1951E+03  AT ALT        10.000
 ***ERROR RELHUM      0.1315E+03  AT ALT        11.000
 ***ERROR RELHUM      0.1677E+03  AT ALT        16.000
 ***ERROR RELHUM      0.1924E+03  AT ALT        17.000
0 CARD 3  *****    70.000     0.000   180.000     0.000     0.000     0.000    0
0 CARD 4  *****         2      2200         2         3
0 PROGRAM WILL COMPUTE RADIANCE                
0 ATMOSPHERIC MODEL
          TEMPERATURE =    1     TROPICAL MODEL      
          WATER VAPOR =    1     TROPICAL MODEL      
          OZONE       =    1     TROPICAL MODEL      
                      M4 =     1 M5 =     1 M6 =     1 MDEF =     1
0 SLANT PATH TO SPACE
          H1    =     70.000 KM
          HMIN  =      0.000 KM
          ANGLE =    180.000 DEG
0 FREQUENCY RANGE
             IV1 =         2 CM-1  (   5000.00 MICROMETERS)
             IV2 =      2200 CM-1  (      4.55 MICROMETERS)
             IDV =         2 CM-1
           IFWHM =         3 CM-1
1
  ATMOSPHERIC PROFILES

   I     Z       P       T        N2       CNTMSLF MOL SCAT     N-1     O3 (UV)  O2 (UV)
        (KM)    (MB)    (K)            (MOL/CM2 KM)   (-)       (-)  (ATM CM/KM) (ATM CM/KM)

   1     0.00 1013.000  299.7  7.622E-01 1.623E+23 9.112E-01 2.508E-04 0.000E+00 3.342E+04
   2     1.00  904.000  293.7  6.321E-01 7.602E+22 8.298E-01 2.311E-04 0.000E+00 2.927E+04
   3     2.00  805.000  287.7  5.223E-01 3.892E+22 7.543E-01 2.116E-04 0.000E+00 2.562E+04
   4     3.00  715.000  283.7  4.238E-01 9.924E+21 6.794E-01 1.928E-04 0.000E+00 2.219E+04
   5     4.00  633.000  277.0  3.484E-01 2.176E+21 6.160E-01 1.760E-04 0.000E+00 1.945E+04
   6     5.00  559.000  270.3  2.853E-01 1.012E+21 5.575E-01 1.595E-04 0.000E+00 1.703E+04
   7     6.00  492.000  263.6  2.324E-01 3.249E+20 5.032E-01 1.443E-04 0.000E+00 1.490E+04
   8     7.00  432.000  257.0  1.885E-01 9.917E+19 4.531E-01 1.301E-04 0.000E+00 1.302E+04
   9     8.00  378.000  250.3  1.522E-01 2.810E+19 4.071E-01 1.170E-04 0.000E+00 1.138E+04
  10     9.00  329.000  243.6  1.217E-01 6.471E+18 3.641E-01 1.047E-04 0.000E+00 9.902E+03
  11    10.00  286.000  237.0  9.716E-02 1.125E+18 3.253E-01 9.354E-05 0.000E+00 8.629E+03
  12    11.00  247.000  230.1  7.688E-02 1.299E+17 2.894E-01 8.322E-05 0.000E+00 7.496E+03
  13    12.00  213.000  223.6  6.054E-02 1.618E+16 2.568E-01 7.385E-05 0.000E+00 6.507E+03
  14    13.00  182.000  217.0  4.693E-02 1.456E+15 2.261E-01 6.502E-05 0.000E+00 5.608E+03
  15    14.00  156.000  210.3  3.671E-02 4.497E+14 2.000E-01 5.751E-05 0.000E+00 4.870E+03
  16    15.00  132.000  203.7  2.802E-02 1.419E+14 1.747E-01 5.024E-05 0.000E+00 4.178E+03
  17    16.00  111.000  197.0  2.118E-02 6.036E+13 1.519E-01 4.368E-05 0.000E+00 3.572E+03
  18    17.00   93.700  194.8  1.544E-02 4.110E+13 1.297E-01 3.729E-05 0.000E+00 3.000E+03
  19    18.00   78.900  198.8  1.051E-02 2.516E+13 1.070E-01 3.077E-05 0.000E+00 2.433E+03
  20    19.00   66.600  202.7  7.202E-03 1.542E+13 8.857E-02 2.547E-05 0.000E+00 1.986E+03
  21    20.00   56.500  206.7  4.985E-03 1.067E+13 7.369E-02 2.119E-05 0.000E+00 1.633E+03
  22    21.00   48.000  210.7  3.463E-03 7.699E+12 6.141E-02 1.766E-05 0.000E+00 1.348E+03
  23    22.00   40.900  214.6  2.423E-03 6.016E+12 5.138E-02 1.478E-05 0.000E+00 1.119E+03
  24    23.00   35.000  217.0  1.736E-03 4.622E+12 4.348E-02 1.250E-05 0.000E+00 9.409E+02
  25    24.00   30.000  219.2  1.250E-03 4.052E+12 3.689E-02 1.061E-05 0.000E+00 7.942E+02
  26    25.00   25.700  221.4  8.990E-04 3.007E+12 3.129E-02 9.000E-06 0.000E+00 6.705E+02
  27    30.00   12.200  232.3  1.840E-04 9.323E+11 1.416E-02 4.072E-06 0.000E+00 2.992E+02
  28    35.00    6.000  243.1  4.064E-05 2.723E+11 6.654E-03 1.914E-06 0.000E+00 1.397E+02
  29    40.00    3.050  254.0  9.620E-06 8.236E+10 3.237E-03 9.310E-07 0.000E+00 6.779E+01
  30    45.00    1.590  264.8  2.405E-06 2.475E+10 1.619E-03 4.655E-07 0.000E+00 3.385E+01
  31    50.00    0.854  270.2  6.665E-07 7.597E+09 8.520E-04 2.450E-07 0.000E+00 1.781E+01
  32    70.00    0.058  218.9  4.684E-09 3.003E+07 7.143E-05 2.054E-08 0.000E+00 1.492E+00
  33   100.00    0.000  190.7  1.532E-13 7.763E+00 4.085E-07 1.175E-10 0.000E+00 6.532E-03
1
  ATMOSPHERIC PROFILES

   I     Z       P       T      CNTMFRN     HNO3    AEROSOL 1 AEROSOL 2 AEROSOL 3 AEROSOL 4 AER1*RH   CIRRUS         RH
        (KM)    (MB)    (K)   MOL/CM2 KM ATM CM/KM   (-)       (-)       (-)       (-)       (-)       (-)      (PERCNT)

   1     0.00 1013.000  299.7  4.640E+23 0.000E+00 0.000E+00 0.000E+00 0.000E+00 0.000E+00 0.000E+00 0.000E+00 1.000E+02
   2     1.00  904.000  293.7  3.144E+23 0.000E+00 0.000E+00 0.000E+00 0.000E+00 0.000E+00 0.000E+00 0.000E+00 1.000E+02
   3     2.00  805.000  287.7  2.150E+23 0.000E+00 0.000E+00 0.000E+00 0.000E+00 0.000E+00 0.000E+00 0.000E+00 1.000E+02
   4     3.00  715.000  283.7  1.056E+23 0.000E+00 0.000E+00 0.000E+00 0.000E+00 0.000E+00 0.000E+00 0.000E+00 1.000E+02
   5     4.00  633.000  277.0  4.686E+22 0.000E+00 0.000E+00 0.000E+00 0.000E+00 0.000E+00 0.000E+00 0.000E+00 1.000E+02
   6     5.00  559.000  270.3  2.924E+22 0.000E+00 0.000E+00 0.000E+00 0.000E+00 0.000E+00 0.000E+00 0.000E+00 1.000E+02
   7     6.00  492.000  263.6  1.515E+22 0.000E+00 0.000E+00 0.000E+00 0.000E+00 0.000E+00 0.000E+00 0.000E+00 1.000E+02
   8     7.00  432.000  257.0  7.601E+21 0.000E+00 0.000E+00 0.000E+00 0.000E+00 0.000E+00 0.000E+00 0.000E+00 1.000E+02
   9     8.00  378.000  250.3  3.654E+21 0.000E+00 0.000E+00 0.000E+00 0.000E+00 0.000E+00 0.000E+00 0.000E+00 1.000E+02
  10     9.00  329.000  243.6  1.574E+21 0.000E+00 0.000E+00 0.000E+00 0.000E+00 0.000E+00 0.000E+00 0.000E+00 1.000E+02
  11    10.00  286.000  237.0  5.875E+20 0.000E+00 0.000E+00 0.000E+00 0.000E+00 0.000E+00 0.000E+00 0.000E+00 1.000E+02
  12    11.00  247.000  230.1  1.779E+20 0.000E+00 0.000E+00 0.000E+00 0.000E+00 0.000E+00 0.000E+00 0.000E+00 1.000E+02
  13    12.00  213.000  223.6  5.572E+19 0.000E+00 0.000E+00 0.000E+00 0.000E+00 0.000E+00 0.000E+00 0.000E+00 9.253E+01
  14    13.00  182.000  217.0  1.472E+19 0.000E+00 0.000E+00 0.000E+00 0.000E+00 0.000E+00 0.000E+00 0.000E+00 5.881E+01
  15    14.00  156.000  210.3  7.236E+18 0.000E+00 0.000E+00 0.000E+00 0.000E+00 0.000E+00 0.000E+00 0.000E+00 7.410E+01
  16    15.00  132.000  203.7  3.551E+18 0.000E+00 0.000E+00 0.000E+00 0.000E+00 0.000E+00 0.000E+00 0.000E+00 9.923E+01
  17    16.00  111.000  197.0  2.014E+18 0.000E+00 0.000E+00 0.000E+00 0.000E+00 0.000E+00 0.000E+00 0.000E+00 1.000E+02
  18    17.00   93.700  194.8  1.419E+18 0.000E+00 0.000E+00 0.000E+00 0.000E+00 0.000E+00 0.000E+00 0.000E+00 1.000E+02
  19    18.00   78.900  198.8  9.158E+17 0.000E+00 0.000E+00 0.000E+00 0.000E+00 0.000E+00 0.000E+00 0.000E+00 8.321E+01
  20    19.00   66.600  202.7  5.934E+17 0.000E+00 0.000E+00 0.000E+00 0.000E+00 0.000E+00 0.000E+00 0.000E+00 3.752E+01
  21    20.00   56.500  206.7  4.107E+17 0.000E+00 0.000E+00 0.000E+00 0.000E+00 0.000E+00 0.000E+00 0.000E+00 1.818E+01
  22    21.00   48.000  210.7  2.908E+17 0.000E+00 0.000E+00 0.000E+00 0.000E+00 0.000E+00 0.000E+00 0.000E+00 9.217E+00
  23    22.00   40.900  214.6  2.150E+17 0.000E+00 0.000E+00 0.000E+00 0.000E+00 0.000E+00 0.000E+00 0.000E+00 5.033E+00
  24    23.00   35.000  217.0  1.595E+17 0.000E+00 0.000E+00 0.000E+00 0.000E+00 0.000E+00 0.000E+00 0.000E+00 3.313E+00
  25    24.00   30.000  219.2  1.267E+17 0.000E+00 0.000E+00 0.000E+00 0.000E+00 0.000E+00 0.000E+00 0.000E+00 2.401E+00
  26    25.00   25.700  221.4  9.258E+16 0.000E+00 0.000E+00 0.000E+00 0.000E+00 0.000E+00 0.000E+00 0.000E+00 1.611E+00
  27    30.00   12.200  232.3  2.332E+16 0.000E+00 0.000E+00 0.000E+00 0.000E+00 0.000E+00 0.000E+00 0.000E+00 2.817E-01
  28    35.00    6.000  243.1  5.924E+15 0.000E+00 0.000E+00 0.000E+00 0.000E+00 0.000E+00 0.000E+00 0.000E+00 5.440E-02
  29    40.00    3.050  254.0  1.585E+15 0.000E+00 0.000E+00 0.000E+00 0.000E+00 0.000E+00 0.000E+00 0.000E+00 1.173E-02
  30    45.00    1.590  264.8  4.345E+14 0.000E+00 0.000E+00 0.000E+00 0.000E+00 0.000E+00 0.000E+00 0.000E+00 2.777E-03
  31    50.00    0.854  270.2  1.267E+14 0.000E+00 0.000E+00 0.000E+00 0.000E+00 0.000E+00 0.000E+00 0.000E+00 1.041E-03
  32    70.00    0.058  218.9  6.679E+11 0.000E+00 0.000E+00 0.000E+00 0.000E+00 0.000E+00 0.000E+00 0.000E+00 6.767E-03
  33   100.00    0.000  190.7  1.942E+06 0.000E+00 0.000E+00 0.000E+00 0.000E+00 0.000E+00 0.000E+00 0.000E+00 1.583E-04
1
  ATMOSPHERIC PROFILES

   I      Z       P       T      H2O      O3       CO2      CO       CH4      N2O      O2       NH3      NO       NO2      SO2
         (KM)    (MB)    (K)  (                                    MBAR                                                       )
   1     0.00 1013.000  299.7  1.90E+02 0.00E+00 0.00E+00 0.00E+00 0.00E+00 0.00E+00 2.09E+05 0.00E+00 0.00E+00 0.00E+00 0.00E+00
   2     1.00  904.000  293.7  1.30E+02 0.00E+00 0.00E+00 0.00E+00 0.00E+00 0.00E+00 2.09E+05 0.00E+00 0.00E+00 0.00E+00 0.00E+00
   3     2.00  805.000  287.7  9.29E+01 0.00E+00 0.00E+00 0.00E+00 0.00E+00 0.00E+00 2.09E+05 0.00E+00 0.00E+00 0.00E+00 0.00E+00
   4     3.00  715.000  283.7  4.69E+01 0.00E+00 0.00E+00 0.00E+00 0.00E+00 0.00E+00 2.09E+05 0.00E+00 0.00E+00 0.00E+00 0.00E+00
   5     4.00  633.000  277.0  2.20E+01 0.00E+00 0.00E+00 0.00E+00 0.00E+00 0.00E+00 2.09E+05 0.00E+00 0.00E+00 0.00E+00 0.00E+00
   6     5.00  559.000  270.3  1.50E+01 0.00E+00 0.00E+00 0.00E+00 0.00E+00 0.00E+00 2.09E+05 0.00E+00 0.00E+00 0.00E+00 0.00E+00
   7     6.00  492.000  263.6  8.49E+00 0.00E+00 0.00E+00 0.00E+00 0.00E+00 0.00E+00 2.09E+05 0.00E+00 0.00E+00 0.00E+00 0.00E+00
   8     7.00  432.000  257.0  4.69E+00 0.00E+00 0.00E+00 0.00E+00 0.00E+00 0.00E+00 2.09E+05 0.00E+00 0.00E+00 0.00E+00 0.00E+00
   9     8.00  378.000  250.3  2.50E+00 0.00E+00 0.00E+00 0.00E+00 0.00E+00 0.00E+00 2.09E+05 0.00E+00 0.00E+00 0.00E+00 0.00E+00
  10     9.00  329.000  243.6  1.20E+00 0.00E+00 0.00E+00 0.00E+00 0.00E+00 0.00E+00 2.09E+05 0.00E+00 0.00E+00 0.00E+00 0.00E+00
  11    10.00  286.000  237.0  5.00E-01 0.00E+00 0.00E+00 0.00E+00 0.00E+00 0.00E+00 2.09E+05 0.00E+00 0.00E+00 0.00E+00 0.00E+00
  12    11.00  247.000  230.1  1.70E-01 0.00E+00 0.00E+00 0.00E+00 0.00E+00 0.00E+00 2.09E+05 0.00E+00 0.00E+00 0.00E+00 0.00E+00
  13    12.00  213.000  223.6  5.99E-02 0.00E+00 0.00E+00 0.00E+00 0.00E+00 0.00E+00 2.09E+05 0.00E+00 0.00E+00 0.00E+00 0.00E+00
  14    13.00  182.000  217.0  1.80E-02 0.00E+00 0.00E+00 0.00E+00 0.00E+00 0.00E+00 2.09E+05 0.00E+00 0.00E+00 0.00E+00 0.00E+00
  15    14.00  156.000  210.3  9.99E-03 0.00E+00 0.00E+00 0.00E+00 0.00E+00 0.00E+00 2.09E+05 0.00E+00 0.00E+00 0.00E+00 0.00E+00
  16    15.00  132.000  203.7  5.61E-03 0.00E+00 0.00E+00 0.00E+00 0.00E+00 0.00E+00 2.09E+05 0.00E+00 0.00E+00 0.00E+00 0.00E+00
  17    16.00  111.000  197.0  3.66E-03 0.00E+00 0.00E+00 0.00E+00 0.00E+00 0.00E+00 2.09E+05 0.00E+00 0.00E+00 0.00E+00 0.00E+00
  18    17.00   93.700  194.8  3.02E-03 0.00E+00 0.00E+00 0.00E+00 0.00E+00 0.00E+00 2.09E+05 0.00E+00 0.00E+00 0.00E+00 0.00E+00
  19    18.00   78.900  198.8  2.36E-03 0.00E+00 0.00E+00 0.00E+00 0.00E+00 0.00E+00 2.09E+05 0.00E+00 0.00E+00 0.00E+00 0.00E+00
  20    19.00   66.600  202.7  1.85E-03 0.00E+00 0.00E+00 0.00E+00 0.00E+00 0.00E+00 2.09E+05 0.00E+00 0.00E+00 0.00E+00 0.00E+00
  21    20.00   56.500  206.7  1.54E-03 0.00E+00 0.00E+00 0.00E+00 0.00E+00 0.00E+00 2.09E+05 0.00E+00 0.00E+00 0.00E+00 0.00E+00
  22    21.00   48.000  210.7  1.31E-03 0.00E+00 0.00E+00 0.00E+00 0.00E+00 0.00E+00 2.09E+05 0.00E+00 0.00E+00 0.00E+00 0.00E+00
  23    22.00   40.900  214.6  1.16E-03 0.00E+00 0.00E+00 0.00E+00 0.00E+00 0.00E+00 2.09E+05 0.00E+00 0.00E+00 0.00E+00 0.00E+00
  24    23.00   35.000  217.0  1.01E-03 0.00E+00 0.00E+00 0.00E+00 0.00E+00 0.00E+00 2.09E+05 0.00E+00 0.00E+00 0.00E+00 0.00E+00
  25    24.00   30.000  219.2  9.48E-04 0.00E+00 0.00E+00 0.00E+00 0.00E+00 0.00E+00 2.09E+05 0.00E+00 0.00E+00 0.00E+00 0.00E+00
  26    25.00   25.700  221.4  8.17E-04 0.00E+00 0.00E+00 0.00E+00 0.00E+00 0.00E+00 2.09E+05 0.00E+00 0.00E+00 0.00E+00 0.00E+00
  27    30.00   12.200  232.3  4.55E-04 0.00E+00 0.00E+00 0.00E+00 0.00E+00 0.00E+00 2.09E+05 0.00E+00 0.00E+00 0.00E+00 0.00E+00
  28    35.00    6.000  243.1  2.46E-04 0.00E+00 0.00E+00 0.00E+00 0.00E+00 0.00E+00 2.09E+05 0.00E+00 0.00E+00 0.00E+00 0.00E+00
  29    40.00    3.050  254.0  1.35E-04 0.00E+00 0.00E+00 0.00E+00 0.00E+00 0.00E+00 2.09E+05 0.00E+00 0.00E+00 0.00E+00 0.00E+00
  30    45.00    1.590  264.8  7.41E-05 0.00E+00 0.00E+00 0.00E+00 0.00E+00 0.00E+00 2.09E+05 0.00E+00 0.00E+00 0.00E+00 0.00E+00
  31    50.00    0.854  270.2  4.11E-05 0.00E+00 0.00E+00 0.00E+00 0.00E+00 0.00E+00 2.09E+05 0.00E+00 0.00E+00 0.00E+00 0.00E+00
  32    70.00    0.058  218.9  2.58E-06 0.00E+00 0.00E+00 0.00E+00 0.00E+00 0.00E+00 2.09E+05 0.00E+00 0.00E+00 0.00E+00 0.00E+00
  33   100.00    0.000  190.7  1.31E-09 0.00E+00 0.00E+00 0.00E+00 0.00E+00 0.00E+00 1.60E+05 0.00E+00 0.00E+00 0.00E+00 0.00E+00
1
  ATMOSPHERIC PROFILES

   I      Z       P       T     CFC-11   CFC-12   CFC-13   CFC-14   CFC-22   CFC-113  CFC-114  CFC-115  CLONO2    HNO4    CHCL2F 
                                 CCL4     N2O5  
         (KM)    (MB)    (K)  (                                 ATM CM/KM                                                     )
   1     0.00 1013.000  299.7  0.00E+00 0.00E+00 0.00E+00 0.00E+00 0.00E+00 0.00E+00 0.00E+00 0.00E+00 0.00E+00 0.00E+00 0.00E+00
                               0.00E+00 0.00E+00
   2     1.00  904.000  293.7  0.00E+00 0.00E+00 0.00E+00 0.00E+00 0.00E+00 0.00E+00 0.00E+00 0.00E+00 0.00E+00 0.00E+00 0.00E+00
                               0.00E+00 0.00E+00
   3     2.00  805.000  287.7  0.00E+00 0.00E+00 0.00E+00 0.00E+00 0.00E+00 0.00E+00 0.00E+00 0.00E+00 0.00E+00 0.00E+00 0.00E+00
                               0.00E+00 0.00E+00
   4     3.00  715.000  283.7  0.00E+00 0.00E+00 0.00E+00 0.00E+00 0.00E+00 0.00E+00 0.00E+00 0.00E+00 0.00E+00 0.00E+00 0.00E+00
                               0.00E+00 0.00E+00
   5     4.00  633.000  277.0  0.00E+00 0.00E+00 0.00E+00 0.00E+00 0.00E+00 0.00E+00 0.00E+00 0.00E+00 0.00E+00 0.00E+00 0.00E+00
                               0.00E+00 0.00E+00
   6     5.00  559.000  270.3  0.00E+00 0.00E+00 0.00E+00 0.00E+00 0.00E+00 0.00E+00 0.00E+00 0.00E+00 0.00E+00 0.00E+00 0.00E+00
                               0.00E+00 0.00E+00
   7     6.00  492.000  263.6  0.00E+00 0.00E+00 0.00E+00 0.00E+00 0.00E+00 0.00E+00 0.00E+00 0.00E+00 0.00E+00 0.00E+00 0.00E+00
                               0.00E+00 0.00E+00
   8     7.00  432.000  257.0  0.00E+00 0.00E+00 0.00E+00 0.00E+00 0.00E+00 0.00E+00 0.00E+00 0.00E+00 0.00E+00 0.00E+00 0.00E+00
                               0.00E+00 0.00E+00
   9     8.00  378.000  250.3  0.00E+00 0.00E+00 0.00E+00 0.00E+00 0.00E+00 0.00E+00 0.00E+00 0.00E+00 0.00E+00 0.00E+00 0.00E+00
                               0.00E+00 0.00E+00
  10     9.00  329.000  243.6  0.00E+00 0.00E+00 0.00E+00 0.00E+00 0.00E+00 0.00E+00 0.00E+00 0.00E+00 0.00E+00 0.00E+00 0.00E+00
                               0.00E+00 0.00E+00
  11    10.00  286.000  237.0  0.00E+00 0.00E+00 0.00E+00 0.00E+00 0.00E+00 0.00E+00 0.00E+00 0.00E+00 0.00E+00 0.00E+00 0.00E+00
                               0.00E+00 0.00E+00
  12    11.00  247.000  230.1  0.00E+00 0.00E+00 0.00E+00 0.00E+00 0.00E+00 0.00E+00 0.00E+00 0.00E+00 0.00E+00 0.00E+00 0.00E+00
                               0.00E+00 0.00E+00
  13    12.00  213.000  223.6  0.00E+00 0.00E+00 0.00E+00 0.00E+00 0.00E+00 0.00E+00 0.00E+00 0.00E+00 0.00E+00 0.00E+00 0.00E+00
                               0.00E+00 0.00E+00
  14    13.00  182.000  217.0  0.00E+00 0.00E+00 0.00E+00 0.00E+00 0.00E+00 0.00E+00 0.00E+00 0.00E+00 0.00E+00 0.00E+00 0.00E+00
                               0.00E+00 0.00E+00
  15    14.00  156.000  210.3  0.00E+00 0.00E+00 0.00E+00 0.00E+00 0.00E+00 0.00E+00 0.00E+00 0.00E+00 0.00E+00 0.00E+00 0.00E+00
                               0.00E+00 0.00E+00
  16    15.00  132.000  203.7  0.00E+00 0.00E+00 0.00E+00 0.00E+00 0.00E+00 0.00E+00 0.00E+00 0.00E+00 0.00E+00 0.00E+00 0.00E+00
                               0.00E+00 0.00E+00
  17    16.00  111.000  197.0  0.00E+00 0.00E+00 0.00E+00 0.00E+00 0.00E+00 0.00E+00 0.00E+00 0.00E+00 0.00E+00 0.00E+00 0.00E+00
                               0.00E+00 0.00E+00
  18    17.00   93.700  194.8  0.00E+00 0.00E+00 0.00E+00 0.00E+00 0.00E+00 0.00E+00 0.00E+00 0.00E+00 0.00E+00 0.00E+00 0.00E+00
                               0.00E+00 0.00E+00
  19    18.00   78.900  198.8  0.00E+00 0.00E+00 0.00E+00 0.00E+00 0.00E+00 0.00E+00 0.00E+00 0.00E+00 0.00E+00 0.00E+00 0.00E+00
                               0.00E+00 0.00E+00
  20    19.00   66.600  202.7  0.00E+00 0.00E+00 0.00E+00 0.00E+00 0.00E+00 0.00E+00 0.00E+00 0.00E+00 0.00E+00 0.00E+00 0.00E+00
                               0.00E+00 0.00E+00
  21    20.00   56.500  206.7  0.00E+00 0.00E+00 0.00E+00 0.00E+00 0.00E+00 0.00E+00 0.00E+00 0.00E+00 0.00E+00 0.00E+00 0.00E+00
                               0.00E+00 0.00E+00
  22    21.00   48.000  210.7  0.00E+00 0.00E+00 0.00E+00 0.00E+00 0.00E+00 0.00E+00 0.00E+00 0.00E+00 0.00E+00 0.00E+00 0.00E+00
                               0.00E+00 0.00E+00
  23    22.00   40.900  214.6  0.00E+00 0.00E+00 0.00E+00 0.00E+00 0.00E+00 0.00E+00 0.00E+00 0.00E+00 0.00E+00 0.00E+00 0.00E+00
                               0.00E+00 0.00E+00
  24    23.00   35.000  217.0  0.00E+00 0.00E+00 0.00E+00 0.00E+00 0.00E+00 0.00E+00 0.00E+00 0.00E+00 0.00E+00 0.00E+00 0.00E+00
                               0.00E+00 0.00E+00
  25    24.00   30.000  219.2  0.00E+00 0.00E+00 0.00E+00 0.00E+00 0.00E+00 0.00E+00 0.00E+00 0.00E+00 0.00E+00 0.00E+00 0.00E+00
                               0.00E+00 0.00E+00
  26    25.00   25.700  221.4  0.00E+00 0.00E+00 0.00E+00 0.00E+00 0.00E+00 0.00E+00 0.00E+00 0.00E+00 0.00E+00 0.00E+00 0.00E+00
                               0.00E+00 0.00E+00
  27    30.00   12.200  232.3  0.00E+00 0.00E+00 0.00E+00 0.00E+00 0.00E+00 0.00E+00 0.00E+00 0.00E+00 0.00E+00 0.00E+00 0.00E+00
                               0.00E+00 0.00E+00
  28    35.00    6.000  243.1  0.00E+00 0.00E+00 0.00E+00 0.00E+00 0.00E+00 0.00E+00 0.00E+00 0.00E+00 0.00E+00 0.00E+00 0.00E+00
                               0.00E+00 0.00E+00
  29    40.00    3.050  254.0  0.00E+00 0.00E+00 0.00E+00 0.00E+00 0.00E+00 0.00E+00 0.00E+00 0.00E+00 0.00E+00 0.00E+00 0.00E+00
                               0.00E+00 0.00E+00
  30    45.00    1.590  264.8  0.00E+00 0.00E+00 0.00E+00 0.00E+00 0.00E+00 0.00E+00 0.00E+00 0.00E+00 0.00E+00 0.00E+00 0.00E+00
                               0.00E+00 0.00E+00
  31    50.00    0.854  270.2  0.00E+00 0.00E+00 0.00E+00 0.00E+00 0.00E+00 0.00E+00 0.00E+00 0.00E+00 0.00E+00 0.00E+00 0.00E+00
                               0.00E+00 0.00E+00
  32    70.00    0.058  218.9  0.00E+00 0.00E+00 0.00E+00 0.00E+00 0.00E+00 0.00E+00 0.00E+00 0.00E+00 0.00E+00 0.00E+00 0.00E+00
                               0.00E+00 0.00E+00
  33   100.00    0.000  190.7  0.00E+00 0.00E+00 0.00E+00 0.00E+00 0.00E+00 0.00E+00 0.00E+00 0.00E+00 0.00E+00 0.00E+00 0.00E+00
                               0.00E+00 0.00E+00


 CASE 3A: GIVEN H1,H2=SPACE,ANGLE



 TANGENT PATH WITH H1 =     70.000 AND ANGLE =    180.000 INTERSECTS THE EARTH

          H2 HAS BEEN RESET TO 0.0 AND LEN TO 0



 SLANT PATH PARAMETERS IN STANDARD FORM

          H1      =     70.000 KM
          H2      =      0.000 KM
          ANGLE   =    180.000 DEG
          PHI     =      0.000 DEG
          HMIN    =      0.000 KM
          LEN     =          0
1CALCULATION OF THE REFRACTED PATH THROUGH THE ATMOSPHERE


  I       ALTITUDE        THETA  DRANGE    RANGE    DBETA     BETA     PHI     DBEND  BENDING    PBAR    TBAR   RHOBAR
      FROM       TO
      (KM)      (KM)      (DEG)    (KM)     (KM)    (DEG)    (DEG)    (DEG)    (DEG)    (DEG)    (MB)    (K)  (GM CM-3)

          H2 TO H1

  1    0.000    1.000    0.000    1.000    1.000    0.000    0.000  180.000    0.000    0.000  958.316  296.74 1.12E-03
  2    1.000    2.000    0.000    1.000    2.000    0.000    0.000  180.000    0.000    0.000  854.330  290.74 1.02E-03
  3    2.000    3.000    0.000    1.000    3.000    0.000    0.000  180.000    0.000    0.000  759.895  285.73 9.26E-04
  4    3.000    4.000    0.000    1.000    4.000    0.000    0.000  180.000    0.000    0.000  673.837  280.39 8.36E-04
  5    4.000    5.000    0.000    1.000    5.000    0.000    0.000  180.000    0.000    0.000  595.849  273.69 7.58E-04
  6    5.000    6.000    0.000    1.000    6.000    0.000    0.000  180.000    0.000    0.000  525.360  266.99 6.85E-04
  7    6.000    7.000    0.000    1.000    7.000    0.000    0.000  180.000    0.000    0.000  461.873  260.34 6.17E-04
  8    7.000    8.000    0.000    1.000    8.000    0.000    0.000  180.000    0.000    0.000  404.881  253.70 5.55E-04
  9    8.000    9.000    0.000    1.000    9.000    0.000    0.000  180.000    0.000    0.000  353.389  247.00 4.98E-04
 10    9.000   10.000    0.000    1.000   10.000    0.000    0.000  180.000    0.000    0.000  307.402  240.35 4.45E-04
 11   10.000   11.000    0.000    1.000   11.000    0.000    0.000  180.000    0.000    0.000  266.404  233.60 3.97E-04
 12   11.000   12.000    0.000    1.000   12.000    0.000    0.000  180.000    0.000    0.000  229.919  226.90 3.52E-04
 13   12.000   13.000    0.000    1.000   13.000    0.000    0.000  180.000    0.000    0.000  197.423  220.35 3.12E-04
 14   13.000   14.000    0.000    1.000   14.000    0.000    0.000  180.000    0.000    0.000  168.932  213.70 2.75E-04
 15   14.000   15.000    0.000    1.000   15.000    0.000    0.000  180.000    0.000    0.000  143.936  207.06 2.42E-04
 16   15.000   16.000    0.000    1.000   16.000    0.000    0.000  180.000    0.000    0.000  121.442  200.41 2.11E-04
 17   16.000   17.000    0.000    1.000   17.000    0.000    0.000  180.000    0.000    0.000  102.334  195.93 1.82E-04
 18   17.000   18.000    0.000    1.000   18.000    0.000    0.000  180.000    0.000    0.000   86.325  196.73 1.52E-04
 19   18.000   19.000    0.000    1.000   19.000    0.000    0.000  180.000    0.000    0.000   72.770  200.68 1.26E-04
 20   19.000   20.000    0.000    1.000   20.000    0.000    0.000  180.000    0.000    0.000   61.566  204.63 1.05E-04
 21   20.000   21.000    0.000    1.000   21.000    0.000    0.000  180.000    0.000    0.000   52.264  208.63 8.71E-05
 22   21.000   22.000    0.000    1.000   22.000    0.000    0.000  180.000    0.000    0.000   44.461  212.59 7.27E-05
 23   22.000   23.000    0.000    1.000   23.000    0.000    0.000  180.000    0.000    0.000   37.955  215.76 6.11E-05
 24   23.000   24.000    0.000    1.000   24.000    0.000    0.000  180.000    0.000    0.000   32.504  218.07 5.18E-05
 25   24.000   25.000    0.000    1.000   25.000    0.000    0.000  180.000    0.000    0.000   27.854  220.27 4.40E-05
 26   25.000   30.000    0.000    5.000   30.000    0.000    0.000  180.000    0.000    0.000   19.003  226.09 2.79E-05
 27   30.000   35.000    0.000    5.000   35.000    0.000    0.000  180.000    0.000    0.000    9.123  236.99 1.28E-05
 28   35.000   40.000    0.000    5.000   40.000    0.000    0.000  180.000    0.000    0.000    4.536  247.86 6.13E-06
 29   40.000   45.000    0.000    5.000   45.000    0.000    0.000  180.000    0.000    0.000    2.325  258.74 3.02E-06
 30   45.000   50.000    0.000    5.000   50.000    0.000    0.000  180.000    0.000    0.000    1.223  267.20 1.54E-06
 31   50.000   70.000    0.000   20.000   70.000    0.000    0.000  180.000    0.000    0.000    0.445  253.37 4.07E-07




1CUMULATIVE ABSORBER AMOUNTS FOR THE PATH FROM H1 TO Z

  J     Z        TBAR     HNO3        O3 UV      CNTMSLF1   CNTMSLF2    CNTMFRN      O2
       (KM)       (K)   (ATM CM)    (ATM CM)    (MOL CM-2)  (MOL CM-2)  (MOL CM-2)(MOL CM-2)

  1   50.000   253.37   0.000E+00   0.000E+00   2.735E+10   3.238E+10   4.806E+14   1.316E+02
  2   45.000   267.20   0.000E+00   0.000E+00   9.996E+10   9.046E+10   1.729E+15   2.565E+02
  3   40.000   258.74   0.000E+00   0.000E+00   3.395E+11   3.384E+11   6.174E+15   5.009E+02
  4   35.000   247.86   0.000E+00   0.000E+00   1.134E+12   1.400E+12   2.263E+16   9.982E+02
  5   30.000   236.99   0.000E+00   0.000E+00   3.815E+12   5.796E+12   8.611E+16   2.045E+03
  6   25.000   226.09   0.000E+00   0.000E+00   1.267E+13   2.300E+13   3.373E+17   4.346E+03
  7   24.000   220.27   0.000E+00   0.000E+00   1.618E+13   3.036E+13   4.461E+17   5.077E+03
  8   23.000   218.07   0.000E+00   0.000E+00   2.051E+13   3.974E+13   5.885E+17   5.942E+03
  9   22.000   215.76   0.000E+00   0.000E+00   2.579E+13   5.153E+13   7.744E+17   6.969E+03
 10   21.000   212.59   0.000E+00   0.000E+00   3.262E+13   6.733E+13   1.025E+18   8.199E+03
 11   20.000   208.63   0.000E+00   0.000E+00   4.172E+13   8.943E+13   1.373E+18   9.685E+03
 12   19.000   204.63   0.000E+00   0.000E+00   5.462E+13   1.222E+14   1.869E+18   1.149E+04
 13   18.000   200.68   0.000E+00   0.000E+00   7.451E+13   1.748E+14   2.612E+18   1.369E+04
 14   17.000   196.73   0.000E+00   0.000E+00   1.070E+14   2.644E+14   3.761E+18   1.640E+04
 15   16.000   195.93   0.000E+00   0.000E+00   1.571E+14   4.037E+14   5.460E+18   1.968E+04
 16   15.000   200.41   0.000E+00   0.000E+00   2.525E+14   6.571E+14   8.170E+18   2.354E+04
 17   14.000   207.06   0.000E+00   0.000E+00   5.194E+14   1.316E+15   1.335E+19   2.806E+04
 18   13.000   213.70   0.000E+00   0.000E+00   1.376E+15   3.275E+15   2.389E+19   3.329E+04
 19   12.000   220.35   0.000E+00   0.000E+00   7.490E+15   1.612E+16   5.469E+19   3.933E+04
 20   11.000   226.90   0.000E+00   0.000E+00   6.209E+16   1.209E+17   1.599E+20   4.632E+04
 21   10.000   233.60   0.000E+00   0.000E+00   5.230E+17   9.198E+17   5.028E+20   5.437E+04
 22    9.000   240.35   0.000E+00   0.000E+00   3.578E+18   5.643E+18   1.504E+21   6.362E+04
 23    8.000   247.00   0.000E+00   0.000E+00   1.831E+19   2.569E+19   3.973E+21   7.425E+04
 24    7.000   253.70   0.000E+00   0.000E+00   7.467E+19   9.192E+19   9.362E+21   8.643E+04
 25    6.000   260.34   0.000E+00   0.000E+00   2.649E+20   2.803E+20   2.031E+22   1.004E+05
 26    5.000   266.99   0.000E+00   0.000E+00   8.694E+20   7.674E+20   4.174E+22   1.163E+05
 27    4.000   273.69   0.000E+00   0.000E+00   2.389E+21   1.709E+21   7.910E+22   1.345E+05
 28    3.000   280.39   0.000E+00   0.000E+00   7.495E+21   3.923E+21   1.514E+23   1.553E+05
 29    2.000   285.73   0.000E+00   0.000E+00   2.871E+22   9.976E+21   3.052E+23   1.792E+05
 30    1.000   290.74   0.000E+00   0.000E+00   8.413E+22   1.808E+22   5.668E+23   2.066E+05
 31    0.000   296.74   0.000E+00   0.000E+00   1.979E+23   1.575E+22   9.511E+23   2.379E+05



1 J     Z       N2 CONT    MOL SCAT       AER 1       AER 2       AER 3       AER 4       CIRRUS
       (KM)

  1   50.000   2.670E-06   6.298E-03   0.000E+00   0.000E+00   0.000E+00   0.000E+00   0.000E+00
  2   45.000   9.444E-06   1.227E-02   0.000E+00   0.000E+00   0.000E+00   0.000E+00   0.000E+00
  3   40.000   3.547E-05   2.395E-02   0.000E+00   0.000E+00   0.000E+00   0.000E+00   0.000E+00
  4   35.000   1.431E-04   4.766E-02   0.000E+00   0.000E+00   0.000E+00   0.000E+00   0.000E+00
  5   30.000   6.178E-04   9.735E-02   0.000E+00   0.000E+00   0.000E+00   0.000E+00   0.000E+00
  6   25.000   2.871E-03   2.054E-01   0.000E+00   0.000E+00   0.000E+00   0.000E+00   0.000E+00
  7   24.000   3.936E-03   2.394E-01   0.000E+00   0.000E+00   0.000E+00   0.000E+00   0.000E+00
  8   23.000   5.416E-03   2.795E-01   0.000E+00   0.000E+00   0.000E+00   0.000E+00   0.000E+00
  9   22.000   7.476E-03   3.268E-01   0.000E+00   0.000E+00   0.000E+00   0.000E+00   0.000E+00
 10   21.000   1.039E-02   3.830E-01   0.000E+00   0.000E+00   0.000E+00   0.000E+00   0.000E+00
 11   20.000   1.457E-02   4.504E-01   0.000E+00   0.000E+00   0.000E+00   0.000E+00   0.000E+00
 12   19.000   2.059E-02   5.313E-01   0.000E+00   0.000E+00   0.000E+00   0.000E+00   0.000E+00
 13   18.000   2.934E-02   6.288E-01   0.000E+00   0.000E+00   0.000E+00   0.000E+00   0.000E+00
 14   17.000   4.216E-02   7.468E-01   0.000E+00   0.000E+00   0.000E+00   0.000E+00   0.000E+00
 15   16.000   6.032E-02   8.873E-01   0.000E+00   0.000E+00   0.000E+00   0.000E+00   0.000E+00
 16   15.000   8.476E-02   1.050E+00   0.000E+00   0.000E+00   0.000E+00   0.000E+00   0.000E+00
 17   14.000   1.169E-01   1.237E+00   0.000E+00   0.000E+00   0.000E+00   0.000E+00   0.000E+00
 18   13.000   1.585E-01   1.450E+00   0.000E+00   0.000E+00   0.000E+00   0.000E+00   0.000E+00
 19   12.000   2.120E-01   1.691E+00   0.000E+00   0.000E+00   0.000E+00   0.000E+00   0.000E+00
 20   11.000   2.804E-01   1.964E+00   0.000E+00   0.000E+00   0.000E+00   0.000E+00   0.000E+00
 21   10.000   3.670E-01   2.271E+00   0.000E+00   0.000E+00   0.000E+00   0.000E+00   0.000E+00
 22    9.000   4.760E-01   2.615E+00   0.000E+00   0.000E+00   0.000E+00   0.000E+00   0.000E+00
 23    8.000   6.123E-01   3.001E+00   0.000E+00   0.000E+00   0.000E+00   0.000E+00   0.000E+00
 24    7.000   7.820E-01   3.430E+00   0.000E+00   0.000E+00   0.000E+00   0.000E+00   0.000E+00
 25    6.000   9.917E-01   3.908E+00   0.000E+00   0.000E+00   0.000E+00   0.000E+00   0.000E+00
 26    5.000   1.250E+00   4.438E+00   0.000E+00   0.000E+00   0.000E+00   0.000E+00   0.000E+00
 27    4.000   1.566E+00   5.024E+00   0.000E+00   0.000E+00   0.000E+00   0.000E+00   0.000E+00
 28    3.000   1.950E+00   5.671E+00   0.000E+00   0.000E+00   0.000E+00   0.000E+00   0.000E+00
 29    2.000   2.422E+00   6.388E+00   0.000E+00   0.000E+00   0.000E+00   0.000E+00   0.000E+00
 30    1.000   2.997E+00   7.179E+00   0.000E+00   0.000E+00   0.000E+00   0.000E+00   0.000E+00
 31    0.000   3.692E+00   8.049E+00   0.000E+00   0.000E+00   0.000E+00   0.000E+00   0.000E+00



1  J    Z       H2O       O3        CO2       CO        CH4       N2O       O2        NH3       NO        NO2       SO2
      (KM)    (                                                      ATM CM                                             )

   1   50.00  3.46E-02  0.00E+00  0.00E+00  0.00E+00  0.00E+00  0.00E+00  1.32E+02  0.00E+00  0.00E+00  0.00E+00  0.00E+00
   2   45.00  6.94E-02  0.00E+00  0.00E+00  0.00E+00  0.00E+00  0.00E+00  2.56E+02  0.00E+00  0.00E+00  0.00E+00  0.00E+00
   3   40.00  1.33E-01  0.00E+00  0.00E+00  0.00E+00  0.00E+00  0.00E+00  5.00E+02  0.00E+00  0.00E+00  0.00E+00  0.00E+00
   4   35.00  2.48E-01  0.00E+00  0.00E+00  0.00E+00  0.00E+00  0.00E+00  9.95E+02  0.00E+00  0.00E+00  0.00E+00  0.00E+00
   5   30.00  4.59E-01  0.00E+00  0.00E+00  0.00E+00  0.00E+00  0.00E+00  2.03E+03  0.00E+00  0.00E+00  0.00E+00  0.00E+00
   6   25.00  8.44E-01  0.00E+00  0.00E+00  0.00E+00  0.00E+00  0.00E+00  4.29E+03  0.00E+00  0.00E+00  0.00E+00  0.00E+00
   7   24.00  9.53E-01  0.00E+00  0.00E+00  0.00E+00  0.00E+00  0.00E+00  5.00E+03  0.00E+00  0.00E+00  0.00E+00  0.00E+00
   8   23.00  1.08E+00  0.00E+00  0.00E+00  0.00E+00  0.00E+00  0.00E+00  5.84E+03  0.00E+00  0.00E+00  0.00E+00  0.00E+00
   9   22.00  1.21E+00  0.00E+00  0.00E+00  0.00E+00  0.00E+00  0.00E+00  6.83E+03  0.00E+00  0.00E+00  0.00E+00  0.00E+00
  10   21.00  1.36E+00  0.00E+00  0.00E+00  0.00E+00  0.00E+00  0.00E+00  8.00E+03  0.00E+00  0.00E+00  0.00E+00  0.00E+00
  11   20.00  1.54E+00  0.00E+00  0.00E+00  0.00E+00  0.00E+00  0.00E+00  9.41E+03  0.00E+00  0.00E+00  0.00E+00  0.00E+00
  12   19.00  1.75E+00  0.00E+00  0.00E+00  0.00E+00  0.00E+00  0.00E+00  1.11E+04  0.00E+00  0.00E+00  0.00E+00  0.00E+00
  13   18.00  2.01E+00  0.00E+00  0.00E+00  0.00E+00  0.00E+00  0.00E+00  1.31E+04  0.00E+00  0.00E+00  0.00E+00  0.00E+00
  14   17.00  2.34E+00  0.00E+00  0.00E+00  0.00E+00  0.00E+00  0.00E+00  1.56E+04  0.00E+00  0.00E+00  0.00E+00  0.00E+00
  15   16.00  2.76E+00  0.00E+00  0.00E+00  0.00E+00  0.00E+00  0.00E+00  1.85E+04  0.00E+00  0.00E+00  0.00E+00  0.00E+00
  16   15.00  3.33E+00  0.00E+00  0.00E+00  0.00E+00  0.00E+00  0.00E+00  2.19E+04  0.00E+00  0.00E+00  0.00E+00  0.00E+00
  17   14.00  4.27E+00  0.00E+00  0.00E+00  0.00E+00  0.00E+00  0.00E+00  2.58E+04  0.00E+00  0.00E+00  0.00E+00  0.00E+00
  18   13.00  5.96E+00  0.00E+00  0.00E+00  0.00E+00  0.00E+00  0.00E+00  3.03E+04  0.00E+00  0.00E+00  0.00E+00  0.00E+00
  19   12.00  1.03E+01  0.00E+00  0.00E+00  0.00E+00  0.00E+00  0.00E+00  3.53E+04  0.00E+00  0.00E+00  0.00E+00  0.00E+00
  20   11.00  2.34E+01  0.00E+00  0.00E+00  0.00E+00  0.00E+00  0.00E+00  4.10E+04  0.00E+00  0.00E+00  0.00E+00  0.00E+00
  21   10.00  6.14E+01  0.00E+00  0.00E+00  0.00E+00  0.00E+00  0.00E+00  4.74E+04  0.00E+00  0.00E+00  0.00E+00  0.00E+00
  22    9.00  1.61E+02  0.00E+00  0.00E+00  0.00E+00  0.00E+00  0.00E+00  5.46E+04  0.00E+00  0.00E+00  0.00E+00  0.00E+00
  23    8.00  3.81E+02  0.00E+00  0.00E+00  0.00E+00  0.00E+00  0.00E+00  6.27E+04  0.00E+00  0.00E+00  0.00E+00  0.00E+00
  24    7.00  8.14E+02  0.00E+00  0.00E+00  0.00E+00  0.00E+00  0.00E+00  7.16E+04  0.00E+00  0.00E+00  0.00E+00  0.00E+00
  25    6.00  1.61E+03  0.00E+00  0.00E+00  0.00E+00  0.00E+00  0.00E+00  8.16E+04  0.00E+00  0.00E+00  0.00E+00  0.00E+00
  26    5.00  3.03E+03  0.00E+00  0.00E+00  0.00E+00  0.00E+00  0.00E+00  9.27E+04  0.00E+00  0.00E+00  0.00E+00  0.00E+00
  27    4.00  5.30E+03  0.00E+00  0.00E+00  0.00E+00  0.00E+00  0.00E+00  1.05E+05  0.00E+00  0.00E+00  0.00E+00  0.00E+00
  28    3.00  9.40E+03  0.00E+00  0.00E+00  0.00E+00  0.00E+00  0.00E+00  1.18E+05  0.00E+00  0.00E+00  0.00E+00  0.00E+00
  29    2.00  1.78E+04  0.00E+00  0.00E+00  0.00E+00  0.00E+00  0.00E+00  1.33E+05  0.00E+00  0.00E+00  0.00E+00  0.00E+00
  30    1.00  3.15E+04  0.00E+00  0.00E+00  0.00E+00  0.00E+00  0.00E+00  1.50E+05  0.00E+00  0.00E+00  0.00E+00  0.00E+00
  31    0.00  5.12E+04  0.00E+00  0.00E+00  0.00E+00  0.00E+00  0.00E+00  1.68E+05  0.00E+00  0.00E+00  0.00E+00  0.00E+00



1  J    Z      CFC-11    CFC-12    CFC-13    CFC-14    CFC-22    CFC-113   CFC-114   CFC-115   CLONO2     HNO4     CHCL2F 
                CCL4      N2O5  
      (KM)    (                                                   ATM CM                                                )

   1   50.00  0.00E+00  0.00E+00  0.00E+00  0.00E+00  0.00E+00  0.00E+00  0.00E+00  0.00E+00  0.00E+00  0.00E+00  0.00E+00
              0.00E+00  0.00E+00
   2   45.00  0.00E+00  0.00E+00  0.00E+00  0.00E+00  0.00E+00  0.00E+00  0.00E+00  0.00E+00  0.00E+00  0.00E+00  0.00E+00
              0.00E+00  0.00E+00
   3   40.00  0.00E+00  0.00E+00  0.00E+00  0.00E+00  0.00E+00  0.00E+00  0.00E+00  0.00E+00  0.00E+00  0.00E+00  0.00E+00
              0.00E+00  0.00E+00
   4   35.00  0.00E+00  0.00E+00  0.00E+00  0.00E+00  0.00E+00  0.00E+00  0.00E+00  0.00E+00  0.00E+00  0.00E+00  0.00E+00
              0.00E+00  0.00E+00
   5   30.00  0.00E+00  0.00E+00  0.00E+00  0.00E+00  0.00E+00  0.00E+00  0.00E+00  0.00E+00  0.00E+00  0.00E+00  0.00E+00
              0.00E+00  0.00E+00
   6   25.00  0.00E+00  0.00E+00  0.00E+00  0.00E+00  0.00E+00  0.00E+00  0.00E+00  0.00E+00  0.00E+00  0.00E+00  0.00E+00
              0.00E+00  0.00E+00
   7   24.00  0.00E+00  0.00E+00  0.00E+00  0.00E+00  0.00E+00  0.00E+00  0.00E+00  0.00E+00  0.00E+00  0.00E+00  0.00E+00
              0.00E+00  0.00E+00
   8   23.00  0.00E+00  0.00E+00  0.00E+00  0.00E+00  0.00E+00  0.00E+00  0.00E+00  0.00E+00  0.00E+00  0.00E+00  0.00E+00
              0.00E+00  0.00E+00
   9   22.00  0.00E+00  0.00E+00  0.00E+00  0.00E+00  0.00E+00  0.00E+00  0.00E+00  0.00E+00  0.00E+00  0.00E+00  0.00E+00
              0.00E+00  0.00E+00
  10   21.00  0.00E+00  0.00E+00  0.00E+00  0.00E+00  0.00E+00  0.00E+00  0.00E+00  0.00E+00  0.00E+00  0.00E+00  0.00E+00
              0.00E+00  0.00E+00
  11   20.00  0.00E+00  0.00E+00  0.00E+00  0.00E+00  0.00E+00  0.00E+00  0.00E+00  0.00E+00  0.00E+00  0.00E+00  0.00E+00
              0.00E+00  0.00E+00
  12   19.00  0.00E+00  0.00E+00  0.00E+00  0.00E+00  0.00E+00  0.00E+00  0.00E+00  0.00E+00  0.00E+00  0.00E+00  0.00E+00
              0.00E+00  0.00E+00
  13   18.00  0.00E+00  0.00E+00  0.00E+00  0.00E+00  0.00E+00  0.00E+00  0.00E+00  0.00E+00  0.00E+00  0.00E+00  0.00E+00
              0.00E+00  0.00E+00
  14   17.00  0.00E+00  0.00E+00  0.00E+00  0.00E+00  0.00E+00  0.00E+00  0.00E+00  0.00E+00  0.00E+00  0.00E+00  0.00E+00
              0.00E+00  0.00E+00
  15   16.00  0.00E+00  0.00E+00  0.00E+00  0.00E+00  0.00E+00  0.00E+00  0.00E+00  0.00E+00  0.00E+00  0.00E+00  0.00E+00
              0.00E+00  0.00E+00
  16   15.00  0.00E+00  0.00E+00  0.00E+00  0.00E+00  0.00E+00  0.00E+00  0.00E+00  0.00E+00  0.00E+00  0.00E+00  0.00E+00
              0.00E+00  0.00E+00
  17   14.00  0.00E+00  0.00E+00  0.00E+00  0.00E+00  0.00E+00  0.00E+00  0.00E+00  0.00E+00  0.00E+00  0.00E+00  0.00E+00
              0.00E+00  0.00E+00
  18   13.00  0.00E+00  0.00E+00  0.00E+00  0.00E+00  0.00E+00  0.00E+00  0.00E+00  0.00E+00  0.00E+00  0.00E+00  0.00E+00
              0.00E+00  0.00E+00
  19   12.00  0.00E+00  0.00E+00  0.00E+00  0.00E+00  0.00E+00  0.00E+00  0.00E+00  0.00E+00  0.00E+00  0.00E+00  0.00E+00
              0.00E+00  0.00E+00
  20   11.00  0.00E+00  0.00E+00  0.00E+00  0.00E+00  0.00E+00  0.00E+00  0.00E+00  0.00E+00  0.00E+00  0.00E+00  0.00E+00
              0.00E+00  0.00E+00
  21   10.00  0.00E+00  0.00E+00  0.00E+00  0.00E+00  0.00E+00  0.00E+00  0.00E+00  0.00E+00  0.00E+00  0.00E+00  0.00E+00
              0.00E+00  0.00E+00
  22    9.00  0.00E+00  0.00E+00  0.00E+00  0.00E+00  0.00E+00  0.00E+00  0.00E+00  0.00E+00  0.00E+00  0.00E+00  0.00E+00
              0.00E+00  0.00E+00
  23    8.00  0.00E+00  0.00E+00  0.00E+00  0.00E+00  0.00E+00  0.00E+00  0.00E+00  0.00E+00  0.00E+00  0.00E+00  0.00E+00
              0.00E+00  0.00E+00
  24    7.00  0.00E+00  0.00E+00  0.00E+00  0.00E+00  0.00E+00  0.00E+00  0.00E+00  0.00E+00  0.00E+00  0.00E+00  0.00E+00
              0.00E+00  0.00E+00
  25    6.00  0.00E+00  0.00E+00  0.00E+00  0.00E+00  0.00E+00  0.00E+00  0.00E+00  0.00E+00  0.00E+00  0.00E+00  0.00E+00
              0.00E+00  0.00E+00
  26    5.00  0.00E+00  0.00E+00  0.00E+00  0.00E+00  0.00E+00  0.00E+00  0.00E+00  0.00E+00  0.00E+00  0.00E+00  0.00E+00
              0.00E+00  0.00E+00
  27    4.00  0.00E+00  0.00E+00  0.00E+00  0.00E+00  0.00E+00  0.00E+00  0.00E+00  0.00E+00  0.00E+00  0.00E+00  0.00E+00
              0.00E+00  0.00E+00
  28    3.00  0.00E+00  0.00E+00  0.00E+00  0.00E+00  0.00E+00  0.00E+00  0.00E+00  0.00E+00  0.00E+00  0.00E+00  0.00E+00
              0.00E+00  0.00E+00
  29    2.00  0.00E+00  0.00E+00  0.00E+00  0.00E+00  0.00E+00  0.00E+00  0.00E+00  0.00E+00  0.00E+00  0.00E+00  0.00E+00
              0.00E+00  0.00E+00
  30    1.00  0.00E+00  0.00E+00  0.00E+00  0.00E+00  0.00E+00  0.00E+00  0.00E+00  0.00E+00  0.00E+00  0.00E+00  0.00E+00
              0.00E+00  0.00E+00
  31    0.00  0.00E+00  0.00E+00  0.00E+00  0.00E+00  0.00E+00  0.00E+00  0.00E+00  0.00E+00  0.00E+00  0.00E+00  0.00E+00
              0.00E+00  0.00E+00


0SUMMARY OF THE GEOMETRY CALCULATION

          H1      =     70.000 KM
          H2      =      0.000 KM
          ANGLE   =    180.000 DEG
          RANGE   =     70.000 KM
          BETA    =      0.000 DEG
          PHI     =      0.000 DEG
          HMIN    =      0.000 KM
          BENDING =      0.000 DEG
          LEN     =          0




1EQUIVALENT SEA LEVEL TOTAL ABSORBER AMOUNTS

                 HNO3      O3 UV       CNTMSLF1    CNTMSLF2   CNTMFRN
               (ATM CM)   (ATM CM)     (MOL CM-2)  (MOL CM-2)  (MOL CM-2)  (MOL CM-2)

             0.000E+00   0.000E+00   1.979E+23   1.575E+22   9.511E+23


              N2 CONT    MOL SCAT       AER 1       AER 2       AER 3       AER 4     CIRRUS      MEAN RH
                                                                                                  (PRCNT)

             3.692E+00   8.049E+00   0.000E+00   0.000E+00   0.000E+00   0.000E+00   0.000E+00        0.00


                 H2O        O3          CO2         CO          CH4         N2O          O2
               (                                        ATM CM                            )

             5.115E+04   0.000E+00   0.000E+00   0.000E+00   0.000E+00   0.000E+00   1.681E+05

                 NH3        NO          NO2         SO2
                 (               ATM CM               )

             0.000E+00   0.000E+00   0.000E+00   0.000E+00

             CFC-11      CFC-12      CFC-13      CFC-14      CFC-22      CFC-113     CFC-114
                 (                                      ATM CM                            )

             0.000E+00   0.000E+00   0.000E+00   0.000E+00   0.000E+00   0.000E+00   0.000E+00

             CFC-115     CLONO2       HNO4       CHCL2F       CCL4        N2O5  
                 (                                      ATM CM                            )

             0.000E+00   0.000E+00   0.000E+00   0.000E+00   0.000E+00   0.000E+00
  iv           -5
  iv            0
1                                             RADIANCE(WATTS/CM2-STER-XXX)
0  FREQ   WAVLEN    PATH THERMAL      SURFACE EMISSION    SURFACE REFLECTED     TOTAL RADIANCE   INTEGRAL    TOTAL
  (CM-1) (MICRN)    (CM-1)   (MICRN)    (CM-1)   (MICRN)    (CM-1)   (MICRN)    (CM-1)   (MICRN)    (CM-1)   TRANS

      2. 4999.998       NaN       NaN       NaN       NaN  0.00E+00  0.00E+00       NaN       NaN       NaN      NaN
      4. 2500.000  3.71E-09  5.93E-12  7.35E-14  1.18E-16  0.00E+00  0.00E+00  3.71E-09  5.93E-12       NaN  0.00003
      6. 1666.666  7.85E-09  2.83E-11  5.20E-15  1.87E-17  0.00E+00  0.00E+00  7.85E-09  2.83E-11       NaN  0.00000
      8. 1250.000  1.36E-08  8.72E-11  6.81E-26  4.36E-28  0.00E+00  0.00E+00  1.36E-08  8.72E-11       NaN  0.00000
     10. 1000.000  2.06E-08  2.06E-10  1.64E-27  1.64E-29  0.00E+00  0.00E+00  2.06E-08  2.06E-10       NaN  0.00000
     12.  833.333  2.83E-08  4.08E-10  0.00E+00  0.00E+00  0.00E+00  0.00E+00  2.83E-08  4.08E-10       NaN  0.00000
     14.  714.286  3.74E-08  7.32E-10  0.00E+00  0.00E+00  0.00E+00  0.00E+00  3.74E-08  7.32E-10       NaN  0.00000
     16.  625.000  4.75E-08  1.22E-09  0.00E+00  0.00E+00  0.00E+00  0.00E+00  4.75E-08  1.22E-09       NaN  0.00000
     18.  555.555  5.74E-08  1.86E-09  0.00E+00  0.00E+00  0.00E+00  0.00E+00  5.74E-08  1.86E-09       NaN  0.00000
     20.  500.000  7.15E-08  2.86E-09  0.00E+00  0.00E+00  0.00E+00  0.00E+00  7.15E-08  2.86E-09       NaN  0.00000
     22.  454.545  8.89E-08  4.30E-09  0.00E+00  0.00E+00  0.00E+00  0.00E+00  8.89E-08  4.30E-09       NaN  0.00000
     24.  416.667  1.02E-07  5.86E-09  0.00E+00  0.00E+00  0.00E+00  0.00E+00  1.02E-07  5.86E-09       NaN  0.00000
     26.  384.615  1.18E-07  7.95E-09  0.00E+00  0.00E+00  0.00E+00  0.00E+00  1.18E-07  7.95E-09       NaN  0.00000
     28.  357.143  1.40E-07  1.10E-08  0.00E+00  0.00E+00  0.00E+00  0.00E+00  1.40E-07  1.10E-08       NaN  0.00000
     30.  333.333  1.59E-07  1.43E-08  0.00E+00  0.00E+00  0.00E+00  0.00E+00  1.59E-07  1.43E-08       NaN  0.00000
     32.  312.500  1.73E-07  1.77E-08  0.00E+00  0.00E+00  0.00E+00  0.00E+00  1.73E-07  1.77E-08       NaN  0.00000
     34.  294.118  1.92E-07  2.22E-08  0.00E+00  0.00E+00  0.00E+00  0.00E+00  1.92E-07  2.22E-08       NaN  0.00000
     36.  277.778  2.08E-07  2.69E-08  0.00E+00  0.00E+00  0.00E+00  0.00E+00  2.08E-07  2.69E-08       NaN  0.00000
     38.  263.158  2.24E-07  3.23E-08  0.00E+00  0.00E+00  0.00E+00  0.00E+00  2.24E-07  3.23E-08       NaN  0.00000
     40.  250.000  2.49E-07  3.99E-08  0.00E+00  0.00E+00  0.00E+00  0.00E+00  2.49E-07  3.99E-08       NaN  0.00000
     42.  238.095  2.84E-07  5.01E-08  0.00E+00  0.00E+00  0.00E+00  0.00E+00  2.84E-07  5.01E-08       NaN  0.00000
     44.  227.273  3.16E-07  6.12E-08  0.00E+00  0.00E+00  0.00E+00  0.00E+00  3.16E-07  6.12E-08       NaN  0.00000
     46.  217.391  3.38E-07  7.14E-08  0.00E+00  0.00E+00  0.00E+00  0.00E+00  3.38E-07  7.14E-08       NaN  0.00000
     48.  208.333  3.61E-07  8.33E-08  0.00E+00  0.00E+00  0.00E+00  0.00E+00  3.61E-07  8.33E-08       NaN  0.00000
     50.  200.000  3.97E-07  9.93E-08  0.00E+00  0.00E+00  0.00E+00  0.00E+00  3.97E-07  9.93E-08       NaN  0.00000
     52.  192.308  4.18E-07  1.13E-07  0.00E+00  0.00E+00  0.00E+00  0.00E+00  4.18E-07  1.13E-07       NaN  0.00000
     54.  185.185  4.31E-07  1.26E-07  0.00E+00  0.00E+00  0.00E+00  0.00E+00  4.31E-07  1.26E-07       NaN  0.00000
     56.  178.571  4.56E-07  1.43E-07  0.00E+00  0.00E+00  0.00E+00  0.00E+00  4.56E-07  1.43E-07       NaN  0.00000
     58.  172.414  4.84E-07  1.63E-07  0.00E+00  0.00E+00  0.00E+00  0.00E+00  4.84E-07  1.63E-07       NaN  0.00000
     60.  166.667  5.24E-07  1.89E-07  0.00E+00  0.00E+00  0.00E+00  0.00E+00  5.24E-07  1.89E-07       NaN  0.00000
     62.  161.290  5.59E-07  2.15E-07  0.00E+00  0.00E+00  0.00E+00  0.00E+00  5.59E-07  2.15E-07       NaN  0.00000
     64.  156.250  5.91E-07  2.42E-07  0.00E+00  0.00E+00  0.00E+00  0.00E+00  5.91E-07  2.42E-07       NaN  0.00000
     66.  151.515  6.37E-07  2.77E-07  0.00E+00  0.00E+00  0.00E+00  0.00E+00  6.37E-07  2.77E-07       NaN  0.00000
     68.  147.059  6.63E-07  3.06E-07  0.00E+00  0.00E+00  0.00E+00  0.00E+00  6.63E-07  3.06E-07       NaN  0.00000
     70.  142.857  6.93E-07  3.40E-07  0.00E+00  0.00E+00  0.00E+00  0.00E+00  6.93E-07  3.40E-07       NaN  0.00000
     72.  138.889  7.19E-07  3.73E-07  0.00E+00  0.00E+00  0.00E+00  0.00E+00  7.19E-07  3.73E-07       NaN  0.00000
     74.  135.135  7.41E-07  4.06E-07  0.00E+00  0.00E+00  0.00E+00  0.00E+00  7.41E-07  4.06E-07       NaN  0.00000
     76.  131.579  7.84E-07  4.53E-07  0.00E+00  0.00E+00  0.00E+00  0.00E+00  7.84E-07  4.53E-07       NaN  0.00000
     78.  128.205  8.21E-07  5.00E-07  0.00E+00  0.00E+00  0.00E+00  0.00E+00  8.21E-07  5.00E-07       NaN  0.00000
     80.  125.000  8.56E-07  5.48E-07  0.00E+00  0.00E+00  0.00E+00  0.00E+00  8.56E-07  5.48E-07       NaN  0.00000
     82.  121.951  9.01E-07  6.06E-07  0.00E+00  0.00E+00  0.00E+00  0.00E+00  9.01E-07  6.06E-07       NaN  0.00000
     84.  119.048  9.55E-07  6.74E-07  0.00E+00  0.00E+00  0.00E+00  0.00E+00  9.55E-07  6.74E-07       NaN  0.00000
     86.  116.279  9.86E-07  7.29E-07  0.00E+00  0.00E+00  0.00E+00  0.00E+00  9.86E-07  7.29E-07       NaN  0.00000
     88.  113.636  1.01E-06  7.79E-07  0.00E+00  0.00E+00  0.00E+00  0.00E+00  1.01E-06  7.79E-07       NaN  0.00000
     90.  111.111  1.03E-06  8.34E-07  0.00E+00  0.00E+00  0.00E+00  0.00E+00  1.03E-06  8.34E-07       NaN  0.00000
     92.  108.696  1.07E-06  9.02E-07  0.00E+00  0.00E+00  0.00E+00  0.00E+00  1.07E-06  9.02E-07       NaN  0.00000
     94.  106.383  1.12E-06  9.89E-07  0.00E+00  0.00E+00  0.00E+00  0.00E+00  1.12E-06  9.89E-07       NaN  0.00000
     96.  104.167  1.17E-06  1.07E-06  0.00E+00  0.00E+00  0.00E+00  0.00E+00  1.17E-06  1.07E-06       NaN  0.00000
     98.  102.041  1.21E-06  1.16E-06  0.00E+00  0.00E+00  0.00E+00  0.00E+00  1.21E-06  1.16E-06       NaN  0.00000
    100.  100.000  1.24E-06  1.24E-06  0.00E+00  0.00E+00  0.00E+00  0.00E+00  1.24E-06  1.24E-06       NaN  0.00000
  iv          105
1                                             RADIANCE(WATTS/CM2-STER-XXX)
0  FREQ   WAVLEN    PATH THERMAL      SURFACE EMISSION    SURFACE REFLECTED     TOTAL RADIANCE   INTEGRAL    TOTAL
  (CM-1) (MICRN)    (CM-1)   (MICRN)    (CM-1)   (MICRN)    (CM-1)   (MICRN)    (CM-1)   (MICRN)    (CM-1)   TRANS

    102.   98.039  1.28E-06  1.33E-06  0.00E+00  0.00E+00  0.00E+00  0.00E+00  1.28E-06  1.33E-06       NaN  0.00000
    104.   96.154  1.32E-06  1.43E-06  0.00E+00  0.00E+00  0.00E+00  0.00E+00  1.32E-06  1.43E-06       NaN  0.00000
    106.   94.340  1.37E-06  1.54E-06  0.00E+00  0.00E+00  0.00E+00  0.00E+00  1.37E-06  1.54E-06       NaN  0.00000
    108.   92.593  1.43E-06  1.67E-06  0.00E+00  0.00E+00  0.00E+00  0.00E+00  1.43E-06  1.67E-06       NaN  0.00000
    110.   90.909  1.47E-06  1.78E-06  0.00E+00  0.00E+00  0.00E+00  0.00E+00  1.47E-06  1.78E-06       NaN  0.00000
    112.   89.286  1.51E-06  1.89E-06  0.00E+00  0.00E+00  0.00E+00  0.00E+00  1.51E-06  1.89E-06       NaN  0.00000
    114.   87.719  1.61E-06  2.09E-06  0.00E+00  0.00E+00  0.00E+00  0.00E+00  1.61E-06  2.09E-06       NaN  0.00000
    116.   86.207  1.65E-06  2.22E-06  0.00E+00  0.00E+00  0.00E+00  0.00E+00  1.65E-06  2.22E-06       NaN  0.00000
    118.   84.746  1.65E-06  2.30E-06  0.00E+00  0.00E+00  0.00E+00  0.00E+00  1.65E-06  2.30E-06       NaN  0.00000
    120.   83.333  1.66E-06  2.39E-06  0.00E+00  0.00E+00  0.00E+00  0.00E+00  1.66E-06  2.39E-06       NaN  0.00000
    122.   81.967  1.70E-06  2.53E-06  0.00E+00  0.00E+00  0.00E+00  0.00E+00  1.70E-06  2.53E-06       NaN  0.00000
    124.   80.645  1.75E-06  2.69E-06  0.00E+00  0.00E+00  0.00E+00  0.00E+00  1.75E-06  2.69E-06       NaN  0.00000
    126.   79.365  1.78E-06  2.83E-06  0.00E+00  0.00E+00  0.00E+00  0.00E+00  1.78E-06  2.83E-06       NaN  0.00000
    128.   78.125  1.84E-06  3.01E-06  0.00E+00  0.00E+00  0.00E+00  0.00E+00  1.84E-06  3.01E-06       NaN  0.00000
    130.   76.923  1.89E-06  3.19E-06  0.00E+00  0.00E+00  0.00E+00  0.00E+00  1.89E-06  3.19E-06       NaN  0.00000
    132.   75.758  1.93E-06  3.36E-06  0.00E+00  0.00E+00  0.00E+00  0.00E+00  1.93E-06  3.36E-06       NaN  0.00000
    134.   74.627  1.99E-06  3.56E-06  0.00E+00  0.00E+00  0.00E+00  0.00E+00  1.99E-06  3.56E-06       NaN  0.00000
    136.   73.529  2.05E-06  3.79E-06  0.00E+00  0.00E+00  0.00E+00  0.00E+00  2.05E-06  3.79E-06       NaN  0.00000
    138.   72.464  2.06E-06  3.92E-06  0.00E+00  0.00E+00  0.00E+00  0.00E+00  2.06E-06  3.92E-06       NaN  0.00000
    140.   71.429  2.09E-06  4.10E-06  0.00E+00  0.00E+00  0.00E+00  0.00E+00  2.09E-06  4.10E-06       NaN  0.00000
    142.   70.423  2.20E-06  4.43E-06  0.00E+00  0.00E+00  0.00E+00  0.00E+00  2.20E-06  4.43E-06       NaN  0.00000
    144.   69.444  2.29E-06  4.75E-06  0.00E+00  0.00E+00  0.00E+00  0.00E+00  2.29E-06  4.75E-06       NaN  0.00000
    146.   68.493  2.30E-06  4.91E-06  0.00E+00  0.00E+00  0.00E+00  0.00E+00  2.30E-06  4.91E-06       NaN  0.00000
    148.   67.568  2.28E-06  4.99E-06  0.00E+00  0.00E+00  0.00E+00  0.00E+00  2.28E-06  4.99E-06       NaN  0.00000
    150.   66.667  2.31E-06  5.21E-06  0.00E+00  0.00E+00  0.00E+00  0.00E+00  2.31E-06  5.21E-06       NaN  0.00000
    152.   65.789  2.34E-06  5.41E-06  0.00E+00  0.00E+00  0.00E+00  0.00E+00  2.34E-06  5.41E-06       NaN  0.00000
    154.   64.935  2.38E-06  5.64E-06  0.00E+00  0.00E+00  0.00E+00  0.00E+00  2.38E-06  5.64E-06       NaN  0.00000
    156.   64.103  2.46E-06  5.98E-06  0.00E+00  0.00E+00  0.00E+00  0.00E+00  2.46E-06  5.98E-06       NaN  0.00000
    158.   63.291  2.52E-06  6.30E-06  0.00E+00  0.00E+00  0.00E+00  0.00E+00  2.52E-06  6.30E-06       NaN  0.00000
    160.   62.500  2.63E-06  6.74E-06  0.00E+00  0.00E+00  0.00E+00  0.00E+00  2.63E-06  6.74E-06       NaN  0.00000
    162.   61.728  2.72E-06  7.13E-06  0.00E+00  0.00E+00  0.00E+00  0.00E+00  2.72E-06  7.13E-06       NaN  0.00000
    164.   60.976  2.77E-06  7.46E-06  0.00E+00  0.00E+00  0.00E+00  0.00E+00  2.77E-06  7.46E-06       NaN  0.00000
    166.   60.241  2.73E-06  7.54E-06  0.00E+00  0.00E+00  0.00E+00  0.00E+00  2.73E-06  7.54E-06       NaN  0.00000
    168.   59.524  2.72E-06  7.67E-06  0.00E+00  0.00E+00  0.00E+00  0.00E+00  2.72E-06  7.67E-06       NaN  0.00000
    170.   58.824  2.73E-06  7.89E-06  0.00E+00  0.00E+00  0.00E+00  0.00E+00  2.73E-06  7.89E-06       NaN  0.00000
    172.   58.140  2.75E-06  8.12E-06  0.00E+00  0.00E+00  0.00E+00  0.00E+00  2.75E-06  8.12E-06       NaN  0.00000
    174.   57.471  2.83E-06  8.56E-06  0.00E+00  0.00E+00  0.00E+00  0.00E+00  2.83E-06  8.56E-06       NaN  0.00000
    176.   56.818  2.86E-06  8.86E-06  0.00E+00  0.00E+00  0.00E+00  0.00E+00  2.86E-06  8.86E-06       NaN  0.00000
    178.   56.180  2.92E-06  9.25E-06  0.00E+00  0.00E+00  0.00E+00  0.00E+00  2.92E-06  9.25E-06       NaN  0.00000
    180.   55.556  3.03E-06  9.82E-06  0.00E+00  0.00E+00  0.00E+00  0.00E+00  3.03E-06  9.82E-06       NaN  0.00000
    182.   54.945  3.09E-06  1.02E-05  0.00E+00  0.00E+00  0.00E+00  0.00E+00  3.09E-06  1.02E-05       NaN  0.00000
    184.   54.348  3.22E-06  1.09E-05  0.00E+00  0.00E+00  0.00E+00  0.00E+00  3.22E-06  1.09E-05       NaN  0.00000
    186.   53.763  3.27E-06  1.13E-05  0.00E+00  0.00E+00  0.00E+00  0.00E+00  3.27E-06  1.13E-05       NaN  0.00000
    188.   53.191  3.20E-06  1.13E-05  0.00E+00  0.00E+00  0.00E+00  0.00E+00  3.20E-06  1.13E-05       NaN  0.00000
    190.   52.632  3.32E-06  1.20E-05  0.00E+00  0.00E+00  0.00E+00  0.00E+00  3.32E-06  1.20E-05       NaN  0.00000
    192.   52.083  3.41E-06  1.26E-05  0.00E+00  0.00E+00  0.00E+00  0.00E+00  3.41E-06  1.26E-05       NaN  0.00000
    194.   51.546  3.38E-06  1.27E-05  0.00E+00  0.00E+00  0.00E+00  0.00E+00  3.38E-06  1.27E-05       NaN  0.00000
    196.   51.020  3.44E-06  1.32E-05  0.00E+00  0.00E+00  0.00E+00  0.00E+00  3.44E-06  1.32E-05       NaN  0.00000
    198.   50.505  3.49E-06  1.37E-05  0.00E+00  0.00E+00  0.00E+00  0.00E+00  3.49E-06  1.37E-05       NaN  0.00000
    200.   50.000  3.44E-06  1.38E-05  0.00E+00  0.00E+00  0.00E+00  0.00E+00  3.44E-06  1.38E-05       NaN  0.00000
  iv          205
1                                             RADIANCE(WATTS/CM2-STER-XXX)
0  FREQ   WAVLEN    PATH THERMAL      SURFACE EMISSION    SURFACE REFLECTED     TOTAL RADIANCE   INTEGRAL    TOTAL
  (CM-1) (MICRN)    (CM-1)   (MICRN)    (CM-1)   (MICRN)    (CM-1)   (MICRN)    (CM-1)   (MICRN)    (CM-1)   TRANS

    202.   49.505  3.47E-06  1.42E-05  0.00E+00  0.00E+00  0.00E+00  0.00E+00  3.47E-06  1.42E-05       NaN  0.00000
    204.   49.020  3.50E-06  1.46E-05  0.00E+00  0.00E+00  0.00E+00  0.00E+00  3.50E-06  1.46E-05       NaN  0.00000
    206.   48.544  3.52E-06  1.49E-05  0.00E+00  0.00E+00  0.00E+00  0.00E+00  3.52E-06  1.49E-05       NaN  0.00000
    208.   48.077  3.52E-06  1.52E-05  0.00E+00  0.00E+00  0.00E+00  0.00E+00  3.52E-06  1.52E-05       NaN  0.00000
    210.   47.619  3.61E-06  1.59E-05  0.00E+00  0.00E+00  0.00E+00  0.00E+00  3.61E-06  1.59E-05       NaN  0.00000
    212.   47.170  3.74E-06  1.68E-05  0.00E+00  0.00E+00  0.00E+00  0.00E+00  3.74E-06  1.68E-05       NaN  0.00000
    214.   46.729  3.75E-06  1.72E-05  0.00E+00  0.00E+00  0.00E+00  0.00E+00  3.75E-06  1.72E-05       NaN  0.00000
    216.   46.296  3.92E-06  1.83E-05  0.00E+00  0.00E+00  0.00E+00  0.00E+00  3.92E-06  1.83E-05       NaN  0.00000
    218.   45.872  4.06E-06  1.93E-05  0.00E+00  0.00E+00  0.00E+00  0.00E+00  4.06E-06  1.93E-05       NaN  0.00000
    220.   45.455  3.93E-06  1.90E-05  0.00E+00  0.00E+00  0.00E+00  0.00E+00  3.93E-06  1.90E-05       NaN  0.00000
    222.   45.045  3.82E-06  1.88E-05  0.00E+00  0.00E+00  0.00E+00  0.00E+00  3.82E-06  1.88E-05       NaN  0.00000
    224.   44.643  3.88E-06  1.95E-05  0.00E+00  0.00E+00  0.00E+00  0.00E+00  3.88E-06  1.95E-05       NaN  0.00000
    226.   44.248  3.85E-06  1.97E-05  0.00E+00  0.00E+00  0.00E+00  0.00E+00  3.85E-06  1.97E-05       NaN  0.00000
    228.   43.860  3.91E-06  2.04E-05  0.00E+00  0.00E+00  0.00E+00  0.00E+00  3.91E-06  2.04E-05       NaN  0.00000
    230.   43.478  4.11E-06  2.17E-05  0.00E+00  0.00E+00  0.00E+00  0.00E+00  4.11E-06  2.17E-05       NaN  0.00000
    232.   43.103  4.25E-06  2.29E-05  0.00E+00  0.00E+00  0.00E+00  0.00E+00  4.25E-06  2.29E-05       NaN  0.00000
    234.   42.735  4.41E-06  2.42E-05  0.00E+00  0.00E+00  0.00E+00  0.00E+00  4.41E-06  2.42E-05       NaN  0.00000
    236.   42.373  4.55E-06  2.53E-05  0.00E+00  0.00E+00  0.00E+00  0.00E+00  4.55E-06  2.53E-05       NaN  0.00000
    238.   42.017  4.61E-06  2.61E-05  0.00E+00  0.00E+00  0.00E+00  0.00E+00  4.61E-06  2.61E-05       NaN  0.00000
    240.   41.667  4.64E-06  2.68E-05  0.00E+00  0.00E+00  0.00E+00  0.00E+00  4.64E-06  2.68E-05       NaN  0.00000
    242.   41.322  4.60E-06  2.69E-05  0.00E+00  0.00E+00  0.00E+00  0.00E+00  4.60E-06  2.69E-05       NaN  0.00000
    244.   40.984  4.38E-06  2.60E-05  0.00E+00  0.00E+00  0.00E+00  0.00E+00  4.38E-06  2.60E-05       NaN  0.00000
    246.   40.650  4.18E-06  2.53E-05  0.00E+00  0.00E+00  0.00E+00  0.00E+00  4.18E-06  2.53E-05       NaN  0.00000
    248.   40.323  4.28E-06  2.64E-05  0.00E+00  0.00E+00  0.00E+00  0.00E+00  4.28E-06  2.64E-05       NaN  0.00000
    250.   40.000  4.49E-06  2.81E-05  0.00E+00  0.00E+00  0.00E+00  0.00E+00  4.49E-06  2.81E-05       NaN  0.00000
    252.   39.683  4.44E-06  2.82E-05  0.00E+00  0.00E+00  0.00E+00  0.00E+00  4.44E-06  2.82E-05       NaN  0.00000
    254.   39.370  4.46E-06  2.88E-05  0.00E+00  0.00E+00  0.00E+00  0.00E+00  4.46E-06  2.88E-05       NaN  0.00000
    256.   39.062  4.66E-06  3.06E-05  0.00E+00  0.00E+00  0.00E+00  0.00E+00  4.66E-06  3.06E-05       NaN  0.00000
    258.   38.760  4.92E-06  3.28E-05  0.00E+00  0.00E+00  0.00E+00  0.00E+00  4.92E-06  3.28E-05       NaN  0.00000
    260.   38.462  5.08E-06  3.43E-05  0.00E+00  0.00E+00  0.00E+00  0.00E+00  5.08E-06  3.43E-05       NaN  0.00000
    262.   38.168  5.10E-06  3.50E-05  0.00E+00  0.00E+00  0.00E+00  0.00E+00  5.10E-06  3.50E-05       NaN  0.00000
    264.   37.879  5.04E-06  3.51E-05  0.00E+00  0.00E+00  0.00E+00  0.00E+00  5.04E-06  3.51E-05       NaN  0.00000
    266.   37.594  4.91E-06  3.47E-05  0.00E+00  0.00E+00  0.00E+00  0.00E+00  4.91E-06  3.47E-05       NaN  0.00000
    268.   37.313  5.09E-06  3.66E-05  0.00E+00  0.00E+00  0.00E+00  0.00E+00  5.09E-06  3.66E-05       NaN  0.00000
    270.   37.037  5.30E-06  3.86E-05  0.00E+00  0.00E+00  0.00E+00  0.00E+00  5.30E-06  3.86E-05       NaN  0.00000
    272.   36.765  5.30E-06  3.92E-05  0.00E+00  0.00E+00  0.00E+00  0.00E+00  5.30E-06  3.92E-05       NaN  0.00000
    274.   36.496  5.19E-06  3.90E-05  0.00E+00  0.00E+00  0.00E+00  0.00E+00  5.19E-06  3.90E-05       NaN  0.00000
    276.   36.232  4.90E-06  3.73E-05  0.00E+00  0.00E+00  0.00E+00  0.00E+00  4.90E-06  3.73E-05       NaN  0.00000
    278.   35.971  4.73E-06  3.66E-05  0.00E+00  0.00E+00  0.00E+00  0.00E+00  4.73E-06  3.66E-05       NaN  0.00000
    280.   35.714  4.76E-06  3.74E-05  0.00E+00  0.00E+00  0.00E+00  0.00E+00  4.76E-06  3.74E-05       NaN  0.00000
    282.   35.461  4.88E-06  3.88E-05  0.00E+00  0.00E+00  0.00E+00  0.00E+00  4.88E-06  3.88E-05       NaN  0.00000
    284.   35.211  5.21E-06  4.20E-05  0.00E+00  0.00E+00  0.00E+00  0.00E+00  5.21E-06  4.20E-05       NaN  0.00000
    286.   34.965  5.45E-06  4.46E-05  0.00E+00  0.00E+00  0.00E+00  0.00E+00  5.45E-06  4.46E-05       NaN  0.00000
    288.   34.722  5.26E-06  4.37E-05  0.00E+00  0.00E+00  0.00E+00  0.00E+00  5.26E-06  4.37E-05       NaN  0.00000
    290.   34.483  5.16E-06  4.34E-05  0.00E+00  0.00E+00  0.00E+00  0.00E+00  5.16E-06  4.34E-05       NaN  0.00000
    292.   34.247  5.57E-06  4.75E-05  0.00E+00  0.00E+00  0.00E+00  0.00E+00  5.57E-06  4.75E-05       NaN  0.00000
    294.   34.014  5.79E-06  5.01E-05  0.00E+00  0.00E+00  0.00E+00  0.00E+00  5.79E-06  5.01E-05       NaN  0.00000
    296.   33.784  5.77E-06  5.06E-05  0.00E+00  0.00E+00  0.00E+00  0.00E+00  5.77E-06  5.06E-05       NaN  0.00000
    298.   33.557  5.68E-06  5.04E-05  0.00E+00  0.00E+00  0.00E+00  0.00E+00  5.68E-06  5.04E-05       NaN  0.00000
    300.   33.333  5.51E-06  4.96E-05  0.00E+00  0.00E+00  0.00E+00  0.00E+00  5.51E-06  4.96E-05       NaN  0.00000
  iv          305
1                                             RADIANCE(WATTS/CM2-STER-XXX)
0  FREQ   WAVLEN    PATH THERMAL      SURFACE EMISSION    SURFACE REFLECTED     TOTAL RADIANCE   INTEGRAL    TOTAL
  (CM-1) (MICRN)    (CM-1)   (MICRN)    (CM-1)   (MICRN)    (CM-1)   (MICRN)    (CM-1)   (MICRN)    (CM-1)   TRANS

    302.   33.113  5.21E-06  4.75E-05  0.00E+00  0.00E+00  0.00E+00  0.00E+00  5.21E-06  4.75E-05       NaN  0.00000
    304.   32.895  5.34E-06  4.94E-05  0.00E+00  0.00E+00  0.00E+00  0.00E+00  5.34E-06  4.94E-05       NaN  0.00000
    306.   32.680  5.79E-06  5.43E-05  0.00E+00  0.00E+00  0.00E+00  0.00E+00  5.79E-06  5.43E-05       NaN  0.00000
    308.   32.468  5.99E-06  5.69E-05  0.00E+00  0.00E+00  0.00E+00  0.00E+00  5.99E-06  5.69E-05       NaN  0.00000
    310.   32.258  6.08E-06  5.84E-05  0.00E+00  0.00E+00  0.00E+00  0.00E+00  6.08E-06  5.84E-05       NaN  0.00000
    312.   32.051  6.14E-06  5.97E-05  0.00E+00  0.00E+00  0.00E+00  0.00E+00  6.14E-06  5.97E-05       NaN  0.00000
    314.   31.847  5.89E-06  5.81E-05  0.00E+00  0.00E+00  0.00E+00  0.00E+00  5.89E-06  5.81E-05       NaN  0.00000
    316.   31.646  5.92E-06  5.91E-05  0.00E+00  0.00E+00  0.00E+00  0.00E+00  5.92E-06  5.91E-05       NaN  0.00000
    318.   31.447  6.27E-06  6.34E-05  0.00E+00  0.00E+00  0.00E+00  0.00E+00  6.27E-06  6.34E-05       NaN  0.00000
    320.   31.250  6.25E-06  6.40E-05  0.00E+00  0.00E+00  0.00E+00  0.00E+00  6.25E-06  6.40E-05       NaN  0.00000
    322.   31.056  5.89E-06  6.10E-05  0.00E+00  0.00E+00  0.00E+00  0.00E+00  5.89E-06  6.10E-05       NaN  0.00000
    324.   30.864  5.64E-06  5.92E-05  0.00E+00  0.00E+00  0.00E+00  0.00E+00  5.64E-06  5.92E-05       NaN  0.00000
    326.   30.675  5.79E-06  6.15E-05  0.00E+00  0.00E+00  0.00E+00  0.00E+00  5.79E-06  6.15E-05       NaN  0.00000
    328.   30.488  5.77E-06  6.21E-05  0.00E+00  0.00E+00  0.00E+00  0.00E+00  5.77E-06  6.21E-05       NaN  0.00000
    330.   30.303  6.21E-06  6.76E-05  0.00E+00  0.00E+00  0.00E+00  0.00E+00  6.21E-06  6.76E-05       NaN  0.00000
    332.   30.120  6.43E-06  7.09E-05  0.00E+00  0.00E+00  0.00E+00  0.00E+00  6.43E-06  7.09E-05       NaN  0.00000
    334.   29.940  6.05E-06  6.75E-05  0.00E+00  0.00E+00  0.00E+00  0.00E+00  6.05E-06  6.75E-05       NaN  0.00000
    336.   29.762  5.98E-06  6.75E-05  0.00E+00  0.00E+00  0.00E+00  0.00E+00  5.98E-06  6.75E-05       NaN  0.00000
    338.   29.586  6.48E-06  7.40E-05  0.00E+00  0.00E+00  0.00E+00  0.00E+00  6.48E-06  7.40E-05       NaN  0.00000
    340.   29.412  6.36E-06  7.35E-05  0.00E+00  0.00E+00  0.00E+00  0.00E+00  6.36E-06  7.35E-05       NaN  0.00000
    342.   29.240  6.31E-06  7.38E-05  0.00E+00  0.00E+00  0.00E+00  0.00E+00  6.31E-06  7.38E-05       NaN  0.00000
    344.   29.070  6.54E-06  7.74E-05  0.00E+00  0.00E+00  0.00E+00  0.00E+00  6.54E-06  7.74E-05       NaN  0.00000
    346.   28.902  6.63E-06  7.93E-05  0.00E+00  0.00E+00  0.00E+00  0.00E+00  6.63E-06  7.93E-05       NaN  0.00000
    348.   28.736  6.48E-06  7.84E-05  0.00E+00  0.00E+00  0.00E+00  0.00E+00  6.48E-06  7.84E-05       NaN  0.00000
    350.   28.571  6.09E-06  7.46E-05  0.00E+00  0.00E+00  0.00E+00  0.00E+00  6.09E-06  7.46E-05       NaN  0.00000
    352.   28.409  6.03E-06  7.47E-05  0.00E+00  0.00E+00  0.00E+00  0.00E+00  6.03E-06  7.47E-05       NaN  0.00000
    354.   28.249  6.09E-06  7.63E-05  0.00E+00  0.00E+00  0.00E+00  0.00E+00  6.09E-06  7.63E-05       NaN  0.00000
    356.   28.090  6.13E-06  7.77E-05  0.00E+00  0.00E+00  0.00E+00  0.00E+00  6.13E-06  7.77E-05       NaN  0.00000
    358.   27.933  6.33E-06  8.11E-05  0.00E+00  0.00E+00  0.00E+00  0.00E+00  6.33E-06  8.11E-05       NaN  0.00000
    360.   27.778  6.93E-06  8.98E-05  0.00E+00  0.00E+00  0.00E+00  0.00E+00  6.93E-06  8.98E-05       NaN  0.00000
    362.   27.624  7.16E-06  9.38E-05  0.00E+00  0.00E+00  0.00E+00  0.00E+00  7.16E-06  9.38E-05       NaN  0.00000
    364.   27.473  7.25E-06  9.61E-05  0.00E+00  0.00E+00  0.00E+00  0.00E+00  7.25E-06  9.61E-05       NaN  0.00000
    366.   27.322  7.32E-06  9.81E-05  0.00E+00  0.00E+00  0.00E+00  0.00E+00  7.32E-06  9.81E-05       NaN  0.00000
    368.   27.174  6.99E-06  9.47E-05  0.00E+00  0.00E+00  0.00E+00  0.00E+00  6.99E-06  9.47E-05       NaN  0.00000
    370.   27.027  6.68E-06  9.15E-05  0.00E+00  0.00E+00  0.00E+00  0.00E+00  6.68E-06  9.15E-05       NaN  0.00000
    372.   26.882  6.96E-06  9.63E-05  0.00E+00  0.00E+00  0.00E+00  0.00E+00  6.96E-06  9.63E-05       NaN  0.00000
    374.   26.738  6.58E-06  9.20E-05  0.00E+00  0.00E+00  0.00E+00  0.00E+00  6.58E-06  9.20E-05       NaN  0.00000
    376.   26.596  6.57E-06  9.29E-05  0.00E+00  0.00E+00  0.00E+00  0.00E+00  6.57E-06  9.29E-05       NaN  0.00000
    378.   26.455  7.17E-06  1.02E-04  0.00E+00  0.00E+00  0.00E+00  0.00E+00  7.17E-06  1.02E-04       NaN  0.00000
    380.   26.316  7.45E-06  1.08E-04  0.00E+00  0.00E+00  0.00E+00  0.00E+00  7.45E-06  1.08E-04       NaN  0.00000
    382.   26.178  7.39E-06  1.08E-04  0.00E+00  0.00E+00  0.00E+00  0.00E+00  7.39E-06  1.08E-04       NaN  0.00000
    384.   26.042  6.79E-06  1.00E-04  0.00E+00  0.00E+00  0.00E+00  0.00E+00  6.79E-06  1.00E-04       NaN  0.00000
    386.   25.907  6.78E-06  1.01E-04  0.00E+00  0.00E+00  0.00E+00  0.00E+00  6.78E-06  1.01E-04       NaN  0.00000
    388.   25.773  7.53E-06  1.13E-04  0.00E+00  0.00E+00  0.00E+00  0.00E+00  7.53E-06  1.13E-04       NaN  0.00000
    390.   25.641  7.77E-06  1.18E-04  0.00E+00  0.00E+00  0.00E+00  0.00E+00  7.77E-06  1.18E-04       NaN  0.00000
    392.   25.510  7.65E-06  1.18E-04  0.00E+00  0.00E+00  0.00E+00  0.00E+00  7.65E-06  1.18E-04       NaN  0.00000
    394.   25.381  7.12E-06  1.11E-04  0.00E+00  0.00E+00  0.00E+00  0.00E+00  7.12E-06  1.11E-04       NaN  0.00000
    396.   25.253  6.59E-06  1.03E-04  0.00E+00  0.00E+00  0.00E+00  0.00E+00  6.59E-06  1.03E-04       NaN  0.00000
    398.   25.126  6.48E-06  1.03E-04  0.00E+00  0.00E+00  0.00E+00  0.00E+00  6.48E-06  1.03E-04       NaN  0.00000
    400.   25.000  6.99E-06  1.12E-04  0.00E+00  0.00E+00  0.00E+00  0.00E+00  6.99E-06  1.12E-04       NaN  0.00000
  iv          405
1                                             RADIANCE(WATTS/CM2-STER-XXX)
0  FREQ   WAVLEN    PATH THERMAL      SURFACE EMISSION    SURFACE REFLECTED     TOTAL RADIANCE   INTEGRAL    TOTAL
  (CM-1) (MICRN)    (CM-1)   (MICRN)    (CM-1)   (MICRN)    (CM-1)   (MICRN)    (CM-1)   (MICRN)    (CM-1)   TRANS

    402.   24.876  7.77E-06  1.25E-04  0.00E+00  0.00E+00  0.00E+00  0.00E+00  7.77E-06  1.25E-04       NaN  0.00000
    404.   24.752  8.02E-06  1.31E-04  0.00E+00  0.00E+00  0.00E+00  0.00E+00  8.02E-06  1.31E-04       NaN  0.00000
    406.   24.631  8.09E-06  1.33E-04  0.00E+00  0.00E+00  0.00E+00  0.00E+00  8.09E-06  1.33E-04       NaN  0.00000
    408.   24.510  8.21E-06  1.37E-04  0.00E+00  0.00E+00  0.00E+00  0.00E+00  8.21E-06  1.37E-04       NaN  0.00000
    410.   24.390  8.24E-06  1.38E-04  0.00E+00  0.00E+00  0.00E+00  0.00E+00  8.24E-06  1.38E-04       NaN  0.00000
    412.   24.272  8.23E-06  1.40E-04  0.00E+00  0.00E+00  0.00E+00  0.00E+00  8.23E-06  1.40E-04       NaN  0.00000
    414.   24.155  8.09E-06  1.39E-04  0.00E+00  0.00E+00  0.00E+00  0.00E+00  8.09E-06  1.39E-04       NaN  0.00000
    416.   24.038  7.62E-06  1.32E-04  0.00E+00  0.00E+00  0.00E+00  0.00E+00  7.62E-06  1.32E-04       NaN  0.00000
    418.   23.923  6.74E-06  1.18E-04  0.00E+00  0.00E+00  0.00E+00  0.00E+00  6.74E-06  1.18E-04       NaN  0.00000
    420.   23.810  6.77E-06  1.19E-04  0.00E+00  0.00E+00  0.00E+00  0.00E+00  6.77E-06  1.19E-04       NaN  0.00000
    422.   23.697  7.44E-06  1.32E-04  0.00E+00  0.00E+00  0.00E+00  0.00E+00  7.44E-06  1.32E-04       NaN  0.00000
    424.   23.585  7.61E-06  1.37E-04  0.00E+00  0.00E+00  0.00E+00  0.00E+00  7.61E-06  1.37E-04       NaN  0.00000
    426.   23.474  7.81E-06  1.42E-04  0.00E+00  0.00E+00  0.00E+00  0.00E+00  7.81E-06  1.42E-04       NaN  0.00000
    428.   23.364  8.25E-06  1.51E-04  0.00E+00  0.00E+00  0.00E+00  0.00E+00  8.25E-06  1.51E-04       NaN  0.00000
    430.   23.256  8.06E-06  1.49E-04  0.00E+00  0.00E+00  0.00E+00  0.00E+00  8.06E-06  1.49E-04       NaN  0.00000
    432.   23.148  8.02E-06  1.50E-04  0.00E+00  0.00E+00  0.00E+00  0.00E+00  8.02E-06  1.50E-04       NaN  0.00000
    434.   23.041  8.26E-06  1.55E-04  0.00E+00  0.00E+00  0.00E+00  0.00E+00  8.26E-06  1.55E-04       NaN  0.00000
    436.   22.936  8.14E-06  1.55E-04  0.00E+00  0.00E+00  0.00E+00  0.00E+00  8.14E-06  1.55E-04       NaN  0.00000
    438.   22.831  8.45E-06  1.62E-04  0.00E+00  0.00E+00  0.00E+00  0.00E+00  8.45E-06  1.62E-04       NaN  0.00000
    440.   22.727  8.19E-06  1.58E-04  0.00E+00  0.00E+00  0.00E+00  0.00E+00  8.19E-06  1.58E-04       NaN  0.00000
    442.   22.624  7.43E-06  1.45E-04  0.00E+00  0.00E+00  0.00E+00  0.00E+00  7.43E-06  1.45E-04       NaN  0.00000
    444.   22.523  7.81E-06  1.54E-04  0.00E+00  0.00E+00  0.00E+00  0.00E+00  7.81E-06  1.54E-04       NaN  0.00000
    446.   22.422  8.22E-06  1.64E-04  0.00E+00  0.00E+00  0.00E+00  0.00E+00  8.22E-06  1.64E-04       NaN  0.00000
    448.   22.321  8.49E-06  1.70E-04  0.00E+00  0.00E+00  0.00E+00  0.00E+00  8.49E-06  1.70E-04       NaN  0.00000
    450.   22.222  8.64E-06  1.75E-04  0.00E+00  0.00E+00  0.00E+00  0.00E+00  8.64E-06  1.75E-04       NaN  0.00000
    452.   22.124  8.25E-06  1.69E-04  0.00E+00  0.00E+00  0.00E+00  0.00E+00  8.25E-06  1.69E-04       NaN  0.00000
    454.   22.026  8.20E-06  1.69E-04  0.00E+00  0.00E+00  0.00E+00  0.00E+00  8.20E-06  1.69E-04       NaN  0.00000
    456.   21.930  7.70E-06  1.60E-04  0.00E+00  0.00E+00  0.00E+00  0.00E+00  7.70E-06  1.60E-04       NaN  0.00000
    458.   21.834  7.24E-06  1.52E-04  0.00E+00  0.00E+00  0.00E+00  0.00E+00  7.24E-06  1.52E-04       NaN  0.00000
    460.   21.739  8.12E-06  1.72E-04  0.00E+00  0.00E+00  0.00E+00  0.00E+00  8.12E-06  1.72E-04       NaN  0.00000
    462.   21.645  8.65E-06  1.85E-04  0.00E+00  0.00E+00  0.00E+00  0.00E+00  8.65E-06  1.85E-04       NaN  0.00000
    464.   21.552  8.88E-06  1.91E-04  0.00E+00  0.00E+00  0.00E+00  0.00E+00  8.88E-06  1.91E-04       NaN  0.00000
    466.   21.459  8.71E-06  1.89E-04  0.00E+00  0.00E+00  0.00E+00  0.00E+00  8.71E-06  1.89E-04       NaN  0.00000
    468.   21.368  8.40E-06  1.84E-04  0.00E+00  0.00E+00  0.00E+00  0.00E+00  8.40E-06  1.84E-04       NaN  0.00000
    470.   21.277  8.24E-06  1.82E-04  0.00E+00  0.00E+00  0.00E+00  0.00E+00  8.24E-06  1.82E-04       NaN  0.00000
    472.   21.186  7.46E-06  1.66E-04  0.00E+00  0.00E+00  0.00E+00  0.00E+00  7.46E-06  1.66E-04       NaN  0.00000
    474.   21.097  7.91E-06  1.78E-04  0.00E+00  0.00E+00  0.00E+00  0.00E+00  7.91E-06  1.78E-04       NaN  0.00000
    476.   21.008  8.77E-06  1.99E-04  0.00E+00  0.00E+00  0.00E+00  0.00E+00  8.77E-06  1.99E-04       NaN  0.00000
    478.   20.921  9.05E-06  2.07E-04  0.00E+00  0.00E+00  0.00E+00  0.00E+00  9.05E-06  2.07E-04       NaN  0.00000
    480.   20.833  8.97E-06  2.07E-04  0.00E+00  0.00E+00  0.00E+00  0.00E+00  8.97E-06  2.07E-04       NaN  0.00000
    482.   20.747  8.43E-06  1.96E-04  0.00E+00  0.00E+00  0.00E+00  0.00E+00  8.43E-06  1.96E-04       NaN  0.00000
    484.   20.661  7.93E-06  1.86E-04  0.00E+00  0.00E+00  0.00E+00  0.00E+00  7.93E-06  1.86E-04       NaN  0.00000
    486.   20.576  8.57E-06  2.02E-04  0.00E+00  0.00E+00  0.00E+00  0.00E+00  8.57E-06  2.02E-04       NaN  0.00000
    488.   20.492  9.12E-06  2.17E-04  0.00E+00  0.00E+00  0.00E+00  0.00E+00  9.12E-06  2.17E-04       NaN  0.00000
    490.   20.408  8.97E-06  2.15E-04  0.00E+00  0.00E+00  0.00E+00  0.00E+00  8.97E-06  2.15E-04       NaN  0.00000
    492.   20.325  8.45E-06  2.04E-04  0.00E+00  0.00E+00  0.00E+00  0.00E+00  8.45E-06  2.04E-04       NaN  0.00000
    494.   20.243  8.87E-06  2.16E-04  0.00E+00  0.00E+00  0.00E+00  0.00E+00  8.87E-06  2.16E-04       NaN  0.00000
    496.   20.161  9.33E-06  2.29E-04  0.00E+00  0.00E+00  0.00E+00  0.00E+00  9.33E-06  2.29E-04       NaN  0.00000
    498.   20.080  9.34E-06  2.32E-04  0.00E+00  0.00E+00  0.00E+00  0.00E+00  9.34E-06  2.32E-04       NaN  0.00000
    500.   20.000  8.90E-06  2.22E-04  0.00E+00  0.00E+00  0.00E+00  0.00E+00  8.90E-06  2.22E-04       NaN  0.00000
  iv          505
1                                             RADIANCE(WATTS/CM2-STER-XXX)
0  FREQ   WAVLEN    PATH THERMAL      SURFACE EMISSION    SURFACE REFLECTED     TOTAL RADIANCE   INTEGRAL    TOTAL
  (CM-1) (MICRN)    (CM-1)   (MICRN)    (CM-1)   (MICRN)    (CM-1)   (MICRN)    (CM-1)   (MICRN)    (CM-1)   TRANS

    502.   19.920  8.17E-06  2.06E-04  0.00E+00  0.00E+00  0.00E+00  0.00E+00  8.17E-06  2.06E-04       NaN  0.00000
    504.   19.841  8.43E-06  2.14E-04  0.00E+00  0.00E+00  0.00E+00  0.00E+00  8.43E-06  2.14E-04       NaN  0.00000
    506.   19.763  8.21E-06  2.10E-04  0.00E+00  0.00E+00  0.00E+00  0.00E+00  8.21E-06  2.10E-04       NaN  0.00000
    508.   19.685  8.46E-06  2.18E-04  0.00E+00  0.00E+00  0.00E+00  0.00E+00  8.46E-06  2.18E-04       NaN  0.00000
    510.   19.608  8.94E-06  2.33E-04  0.00E+00  0.00E+00  0.00E+00  0.00E+00  8.94E-06  2.33E-04       NaN  0.00000
    512.   19.531  9.02E-06  2.36E-04  0.00E+00  0.00E+00  0.00E+00  0.00E+00  9.02E-06  2.36E-04       NaN  0.00000
    514.   19.455  9.08E-06  2.40E-04  0.00E+00  0.00E+00  0.00E+00  0.00E+00  9.08E-06  2.40E-04       NaN  0.00000
    516.   19.380  8.32E-06  2.22E-04  0.00E+00  0.00E+00  0.00E+00  0.00E+00  8.32E-06  2.22E-04       NaN  0.00000
    518.   19.305  7.87E-06  2.11E-04  0.00E+00  0.00E+00  0.00E+00  0.00E+00  7.87E-06  2.11E-04       NaN  0.00000
    520.   19.231  8.32E-06  2.25E-04  0.00E+00  0.00E+00  0.00E+00  0.00E+00  8.32E-06  2.25E-04       NaN  0.00000
    522.   19.157  9.09E-06  2.48E-04  0.00E+00  0.00E+00  0.00E+00  0.00E+00  9.09E-06  2.48E-04       NaN  0.00000
    524.   19.084  8.81E-06  2.42E-04  0.00E+00  0.00E+00  0.00E+00  0.00E+00  8.81E-06  2.42E-04       NaN  0.00000
    526.   19.011  8.31E-06  2.30E-04  0.00E+00  0.00E+00  0.00E+00  0.00E+00  8.31E-06  2.30E-04       NaN  0.00000
    528.   18.939  9.08E-06  2.53E-04  0.00E+00  0.00E+00  0.00E+00  0.00E+00  9.08E-06  2.53E-04       NaN  0.00000
    530.   18.868  9.51E-06  2.67E-04  0.00E+00  0.00E+00  0.00E+00  0.00E+00  9.51E-06  2.67E-04       NaN  0.00000
    532.   18.797  9.55E-06  2.70E-04  1.40E-45  3.92E-44  0.00E+00  0.00E+00  9.55E-06  2.70E-04       NaN  0.00000
    534.   18.727  9.26E-06  2.64E-04  0.00E+00  0.00E+00  0.00E+00  0.00E+00  9.26E-06  2.64E-04       NaN  0.00000
    536.   18.657  8.82E-06  2.53E-04  0.00E+00  0.00E+00  0.00E+00  0.00E+00  8.82E-06  2.53E-04       NaN  0.00000
    538.   18.587  9.24E-06  2.68E-04  0.00E+00  0.00E+00  0.00E+00  0.00E+00  9.24E-06  2.68E-04       NaN  0.00000
    540.   18.519  9.29E-06  2.71E-04  0.00E+00  0.00E+00  0.00E+00  0.00E+00  9.29E-06  2.71E-04       NaN  0.00000
    542.   18.450  9.21E-06  2.71E-04  0.00E+00  0.00E+00  0.00E+00  0.00E+00  9.21E-06  2.71E-04       NaN  0.00000
    544.   18.382  8.85E-06  2.62E-04  0.00E+00  0.00E+00  0.00E+00  0.00E+00  8.85E-06  2.62E-04       NaN  0.00000
    546.   18.315  8.20E-06  2.45E-04  0.00E+00  0.00E+00  0.00E+00  0.00E+00  8.20E-06  2.45E-04       NaN  0.00000
    548.   18.248  8.64E-06  2.60E-04  0.00E+00  0.00E+00  0.00E+00  0.00E+00  8.64E-06  2.60E-04       NaN  0.00000
    550.   18.182  8.93E-06  2.70E-04  0.00E+00  0.00E+00  0.00E+00  0.00E+00  8.93E-06  2.70E-04       NaN  0.00000
    552.   18.116  9.28E-06  2.83E-04  0.00E+00  0.00E+00  0.00E+00  0.00E+00  9.28E-06  2.83E-04       NaN  0.00000
    554.   18.051  9.15E-06  2.81E-04  0.00E+00  0.00E+00  0.00E+00  0.00E+00  9.15E-06  2.81E-04       NaN  0.00000
    556.   17.986  9.16E-06  2.83E-04  0.00E+00  0.00E+00  0.00E+00  0.00E+00  9.16E-06  2.83E-04       NaN  0.00000
    558.   17.921  9.52E-06  2.97E-04  1.82E-44  5.68E-43  0.00E+00  0.00E+00  9.52E-06  2.97E-04       NaN  0.00000
    560.   17.857  9.63E-06  3.02E-04  3.64E-44  1.14E-42  0.00E+00  0.00E+00  9.63E-06  3.02E-04       NaN  0.00000
    562.   17.794  9.28E-06  2.93E-04  1.26E-44  3.98E-43  0.00E+00  0.00E+00  9.28E-06  2.93E-04       NaN  0.00000
    564.   17.730  9.13E-06  2.91E-04  0.00E+00  0.00E+00  0.00E+00  0.00E+00  9.13E-06  2.91E-04       NaN  0.00000
    566.   17.668  8.91E-06  2.85E-04  0.00E+00  0.00E+00  0.00E+00  0.00E+00  8.91E-06  2.85E-04       NaN  0.00000
    568.   17.606  8.22E-06  2.65E-04  0.00E+00  0.00E+00  0.00E+00  0.00E+00  8.22E-06  2.65E-04       NaN  0.00000
    570.   17.544  8.53E-06  2.77E-04  0.00E+00  0.00E+00  0.00E+00  0.00E+00  8.53E-06  2.77E-04       NaN  0.00000
    572.   17.483  9.30E-06  3.04E-04  0.00E+00  0.00E+00  0.00E+00  0.00E+00  9.30E-06  3.04E-04       NaN  0.00000
    574.   17.422  9.32E-06  3.07E-04  0.00E+00  0.00E+00  0.00E+00  0.00E+00  9.32E-06  3.07E-04       NaN  0.00000
    576.   17.361  8.72E-06  2.89E-04  0.00E+00  0.00E+00  0.00E+00  0.00E+00  8.72E-06  2.89E-04       NaN  0.00000
    578.   17.301  9.12E-06  3.05E-04  0.00E+00  0.00E+00  0.00E+00  0.00E+00  9.12E-06  3.05E-04       NaN  0.00000
    580.   17.241  8.85E-06  2.98E-04  0.00E+00  0.00E+00  0.00E+00  0.00E+00  8.85E-06  2.98E-04       NaN  0.00000
    582.   17.182  8.85E-06  3.00E-04  0.00E+00  0.00E+00  0.00E+00  0.00E+00  8.85E-06  3.00E-04       NaN  0.00000
    584.   17.123  9.27E-06  3.16E-04  0.00E+00  0.00E+00  0.00E+00  0.00E+00  9.27E-06  3.16E-04       NaN  0.00000
    586.   17.065  9.37E-06  3.22E-04  0.00E+00  0.00E+00  0.00E+00  0.00E+00  9.37E-06  3.22E-04       NaN  0.00000
    588.   17.007  9.60E-06  3.32E-04  0.00E+00  0.00E+00  0.00E+00  0.00E+00  9.60E-06  3.32E-04       NaN  0.00000
    590.   16.949  9.01E-06  3.14E-04  0.00E+00  0.00E+00  0.00E+00  0.00E+00  9.01E-06  3.14E-04       NaN  0.00000
    592.   16.892  8.22E-06  2.88E-04  0.00E+00  0.00E+00  0.00E+00  0.00E+00  8.22E-06  2.88E-04       NaN  0.00000
    594.   16.835  8.63E-06  3.05E-04  0.00E+00  0.00E+00  0.00E+00  0.00E+00  8.63E-06  3.05E-04       NaN  0.00000
    596.   16.779  9.21E-06  3.27E-04  0.00E+00  0.00E+00  0.00E+00  0.00E+00  9.21E-06  3.27E-04       NaN  0.00000
    598.   16.722  9.46E-06  3.38E-04  0.00E+00  0.00E+00  0.00E+00  0.00E+00  9.46E-06  3.38E-04       NaN  0.00000
    600.   16.667  9.14E-06  3.29E-04  0.00E+00  0.00E+00  0.00E+00  0.00E+00  9.14E-06  3.29E-04       NaN  0.00000
  iv          605
1                                             RADIANCE(WATTS/CM2-STER-XXX)
0  FREQ   WAVLEN    PATH THERMAL      SURFACE EMISSION    SURFACE REFLECTED     TOTAL RADIANCE   INTEGRAL    TOTAL
  (CM-1) (MICRN)    (CM-1)   (MICRN)    (CM-1)   (MICRN)    (CM-1)   (MICRN)    (CM-1)   (MICRN)    (CM-1)   TRANS

    602.   16.611  9.37E-06  3.40E-04  2.80E-45  1.01E-43  0.00E+00  0.00E+00  9.37E-06  3.40E-04       NaN  0.00000
    604.   16.556  9.40E-06  3.43E-04  1.09E-43  3.99E-42  0.00E+00  0.00E+00  9.40E-06  3.43E-04       NaN  0.00000
    606.   16.502  9.59E-06  3.52E-04  1.88E-42  6.90E-41  0.00E+00  0.00E+00  9.59E-06  3.52E-04       NaN  0.00000
    608.   16.447  9.65E-06  3.57E-04  2.61E-42  9.63E-41  0.00E+00  0.00E+00  9.65E-06  3.57E-04       NaN  0.00000
    610.   16.393  9.61E-06  3.58E-04  1.39E-42  5.18E-41  0.00E+00  0.00E+00  9.61E-06  3.58E-04       NaN  0.00000
    612.   16.340  9.33E-06  3.49E-04  5.00E-43  1.87E-41  0.00E+00  0.00E+00  9.33E-06  3.49E-04       NaN  0.00000
    614.   16.287  9.00E-06  3.39E-04  1.40E-45  5.32E-44  0.00E+00  0.00E+00  9.00E-06  3.39E-04       NaN  0.00000
    616.   16.234  8.60E-06  3.26E-04  4.20E-45  1.60E-43  0.00E+00  0.00E+00  8.60E-06  3.26E-04       NaN  0.00000
    618.   16.181  9.11E-06  3.48E-04  1.40E-45  5.32E-44  0.00E+00  0.00E+00  9.11E-06  3.48E-04       NaN  0.00000
    620.   16.129  9.34E-06  3.59E-04  0.00E+00  0.00E+00  0.00E+00  0.00E+00  9.34E-06  3.59E-04       NaN  0.00000
    622.   16.077  9.39E-06  3.63E-04  0.00E+00  0.00E+00  0.00E+00  0.00E+00  9.39E-06  3.63E-04       NaN  0.00000
    624.   16.026  9.01E-06  3.51E-04  1.40E-45  5.47E-44  0.00E+00  0.00E+00  9.01E-06  3.51E-04       NaN  0.00000
    626.   15.974  8.80E-06  3.45E-04  1.12E-44  4.40E-43  0.00E+00  0.00E+00  8.80E-06  3.45E-04       NaN  0.00000
    628.   15.924  9.50E-06  3.75E-04  6.42E-43  2.53E-41  0.00E+00  0.00E+00  9.50E-06  3.75E-04       NaN  0.00000
    630.   15.873  9.63E-06  3.82E-04  1.18E-42  4.67E-41  0.00E+00  0.00E+00  9.63E-06  3.82E-04       NaN  0.00000
    632.   15.823  9.33E-06  3.73E-04  3.32E-43  1.33E-41  0.00E+00  0.00E+00  9.33E-06  3.73E-04       NaN  0.00000
    634.   15.773  8.87E-06  3.57E-04  0.00E+00  0.00E+00  0.00E+00  0.00E+00  8.87E-06  3.57E-04       NaN  0.00000
    636.   15.723  8.75E-06  3.54E-04  0.00E+00  0.00E+00  0.00E+00  0.00E+00  8.75E-06  3.54E-04       NaN  0.00000
    638.   15.674  8.74E-06  3.56E-04  0.00E+00  0.00E+00  0.00E+00  0.00E+00  8.74E-06  3.56E-04       NaN  0.00000
    640.   15.625  8.99E-06  3.68E-04  1.40E-45  5.75E-44  0.00E+00  0.00E+00  8.99E-06  3.68E-04       NaN  0.00000
    642.   15.576  9.23E-06  3.80E-04  8.41E-45  3.46E-43  0.00E+00  0.00E+00  9.23E-06  3.80E-04       NaN  0.00000
    644.   15.528  8.96E-06  3.72E-04  1.40E-44  5.82E-43  0.00E+00  0.00E+00  8.96E-06  3.72E-04       NaN  0.00000
    646.   15.480  9.16E-06  3.82E-04  4.08E-42  1.70E-40  0.00E+00  0.00E+00  9.16E-06  3.82E-04       NaN  0.00000
    648.   15.432  9.55E-06  4.01E-04  1.57E-41  6.58E-40  0.00E+00  0.00E+00  9.55E-06  4.01E-04       NaN  0.00000
    650.   15.385  9.55E-06  4.03E-04  1.36E-41  5.73E-40  0.00E+00  0.00E+00  9.55E-06  4.03E-04       NaN  0.00000
    652.   15.337  9.40E-06  4.00E-04  6.65E-42  2.83E-40  0.00E+00  0.00E+00  9.40E-06  4.00E-04       NaN  0.00000
    654.   15.291  9.54E-06  4.08E-04  1.79E-41  7.67E-40  0.00E+00  0.00E+00  9.54E-06  4.08E-04       NaN  0.00000
    656.   15.244  9.58E-06  4.12E-04  1.47E-41  6.34E-40  0.00E+00  0.00E+00  9.58E-06  4.12E-04       NaN  0.00000
    658.   15.198  8.99E-06  3.89E-04  2.26E-42  9.77E-41  0.00E+00  0.00E+00  8.99E-06  3.89E-04       NaN  0.00000
    660.   15.152  8.84E-06  3.85E-04  4.20E-45  1.84E-43  0.00E+00  0.00E+00  8.84E-06  3.85E-04       NaN  0.00000
    662.   15.106  9.17E-06  4.02E-04  2.24E-43  9.83E-42  0.00E+00  0.00E+00  9.17E-06  4.02E-04       NaN  0.00000
    664.   15.060  9.28E-06  4.09E-04  5.06E-42  2.23E-40  0.00E+00  0.00E+00  9.28E-06  4.09E-04       NaN  0.00000
    666.   15.015  9.45E-06  4.19E-04  6.60E-42  2.93E-40  0.00E+00  0.00E+00  9.45E-06  4.19E-04       NaN  0.00000
    668.   14.970  8.91E-06  3.98E-04  1.09E-42  4.85E-41  0.00E+00  0.00E+00  8.91E-06  3.98E-04       NaN  0.00000
    670.   14.925  8.86E-06  3.98E-04  2.52E-44  1.13E-42  0.00E+00  0.00E+00  8.86E-06  3.98E-04       NaN  0.00000
    672.   14.881  9.15E-06  4.13E-04  1.58E-43  7.15E-42  0.00E+00  0.00E+00  9.15E-06  4.13E-04       NaN  0.00000
    674.   14.837  9.29E-06  4.22E-04  1.05E-41  4.75E-40  0.00E+00  0.00E+00  9.29E-06  4.22E-04       NaN  0.00000
    676.   14.793  9.48E-06  4.33E-04  2.31E-41  1.06E-39  0.00E+00  0.00E+00  9.48E-06  4.33E-04       NaN  0.00000
    678.   14.749  9.21E-06  4.23E-04  8.57E-42  3.94E-40  0.00E+00  0.00E+00  9.21E-06  4.23E-04       NaN  0.00000
    680.   14.706  9.24E-06  4.27E-04  1.29E-41  5.96E-40  0.00E+00  0.00E+00  9.24E-06  4.27E-04       NaN  0.00000
    682.   14.663  9.48E-06  4.41E-04  3.25E-41  1.51E-39  0.00E+00  0.00E+00  9.48E-06  4.41E-04       NaN  0.00000
    684.   14.620  9.46E-06  4.43E-04  2.87E-41  1.34E-39  0.00E+00  0.00E+00  9.46E-06  4.43E-04       NaN  0.00000
    686.   14.577  9.17E-06  4.32E-04  8.87E-42  4.18E-40  0.00E+00  0.00E+00  9.17E-06  4.32E-04       NaN  0.00000
    688.   14.535  8.50E-06  4.02E-04  1.86E-43  8.82E-42  0.00E+00  0.00E+00  8.50E-06  4.02E-04       NaN  0.00000
    690.   14.493  8.72E-06  4.15E-04  1.60E-43  7.61E-42  0.00E+00  0.00E+00  8.72E-06  4.15E-04       NaN  0.00000
    692.   14.451  9.07E-06  4.34E-04  4.79E-43  2.29E-41  0.00E+00  0.00E+00  9.07E-06  4.34E-04       NaN  0.00000
    694.   14.409  8.66E-06  4.17E-04  1.61E-43  7.76E-42  0.00E+00  0.00E+00  8.66E-06  4.17E-04       NaN  0.00000
    696.   14.368  8.45E-06  4.09E-04  0.00E+00  0.00E+00  0.00E+00  0.00E+00  8.45E-06  4.09E-04       NaN  0.00000
    698.   14.327  8.63E-06  4.20E-04  7.92E-43  3.86E-41  0.00E+00  0.00E+00  8.63E-06  4.20E-04       NaN  0.00000
    700.   14.286  9.20E-06  4.51E-04  5.95E-42  2.91E-40  0.00E+00  0.00E+00  9.20E-06  4.51E-04       NaN  0.00000
  iv          705
1                                             RADIANCE(WATTS/CM2-STER-XXX)
0  FREQ   WAVLEN    PATH THERMAL      SURFACE EMISSION    SURFACE REFLECTED     TOTAL RADIANCE   INTEGRAL    TOTAL
  (CM-1) (MICRN)    (CM-1)   (MICRN)    (CM-1)   (MICRN)    (CM-1)   (MICRN)    (CM-1)   (MICRN)    (CM-1)   TRANS

    702.   14.245  9.24E-06  4.55E-04  5.43E-42  2.68E-40  0.00E+00  0.00E+00  9.24E-06  4.55E-04       NaN  0.00000
    704.   14.205  8.65E-06  4.29E-04  5.27E-43  2.61E-41  0.00E+00  0.00E+00  8.65E-06  4.29E-04       NaN  0.00000
    706.   14.164  8.33E-06  4.15E-04  1.40E-45  7.01E-44  0.00E+00  0.00E+00  8.33E-06  4.15E-04       NaN  0.00000
    708.   14.124  8.79E-06  4.41E-04  3.11E-42  1.56E-40  0.00E+00  0.00E+00  8.79E-06  4.41E-04       NaN  0.00000
    710.   14.085  9.24E-06  4.66E-04  1.22E-41  6.15E-40  0.00E+00  0.00E+00  9.24E-06  4.66E-04       NaN  0.00000
    712.   14.045  9.01E-06  4.57E-04  8.11E-42  4.11E-40  0.00E+00  0.00E+00  9.01E-06  4.57E-04       NaN  0.00000
    714.   14.006  8.84E-06  4.51E-04  7.31E-42  3.72E-40  0.00E+00  0.00E+00  8.84E-06  4.51E-04       NaN  0.00000
    716.   13.966  9.17E-06  4.70E-04  3.56E-41  1.82E-39  0.00E+00  0.00E+00  9.17E-06  4.70E-04       NaN  0.00000
    718.   13.928  9.19E-06  4.74E-04  4.73E-41  2.44E-39  0.00E+00  0.00E+00  9.19E-06  4.74E-04       NaN  0.00000
    720.   13.889  9.17E-06  4.76E-04  4.83E-41  2.50E-39  0.00E+00  0.00E+00  9.17E-06  4.76E-04       NaN  0.00000
    722.   13.850  9.19E-06  4.79E-04  6.20E-41  3.23E-39  0.00E+00  0.00E+00  9.19E-06  4.79E-04       NaN  0.00000
    724.   13.812  9.21E-06  4.83E-04  9.18E-41  4.81E-39  0.00E+00  0.00E+00  9.21E-06  4.83E-04       NaN  0.00000
    726.   13.774  9.19E-06  4.84E-04  7.73E-41  4.07E-39  0.00E+00  0.00E+00  9.19E-06  4.84E-04       NaN  0.00000
    728.   13.736  8.91E-06  4.72E-04  3.22E-41  1.71E-39  0.00E+00  0.00E+00  8.91E-06  4.72E-04       NaN  0.00000
    730.   13.699  8.59E-06  4.58E-04  5.37E-42  2.86E-40  0.00E+00  0.00E+00  8.59E-06  4.58E-04       NaN  0.00000
    732.   13.661  8.85E-06  4.74E-04  2.99E-41  1.60E-39  0.00E+00  0.00E+00  8.85E-06  4.74E-04       NaN  0.00000
    734.   13.624  9.12E-06  4.91E-04  6.80E-41  3.66E-39  0.00E+00  0.00E+00  9.12E-06  4.91E-04       NaN  0.00000
    736.   13.587  9.11E-06  4.93E-04  8.29E-41  4.49E-39  0.00E+00  0.00E+00  9.11E-06  4.93E-04       NaN  0.00000
    738.   13.550  9.07E-06  4.94E-04  6.27E-41  3.42E-39  0.00E+00  0.00E+00  9.07E-06  4.94E-04       NaN  0.00000
    740.   13.514  8.75E-06  4.79E-04  1.59E-41  8.68E-40  0.00E+00  0.00E+00  8.75E-06  4.79E-04       NaN  0.00000
    742.   13.477  8.56E-06  4.71E-04  1.95E-43  1.07E-41  0.00E+00  0.00E+00  8.56E-06  4.71E-04       NaN  0.00000
    744.   13.441  8.65E-06  4.79E-04  2.59E-42  1.43E-40  0.00E+00  0.00E+00  8.65E-06  4.79E-04       NaN  0.00000
    746.   13.405  8.71E-06  4.85E-04  1.32E-41  7.37E-40  0.00E+00  0.00E+00  8.71E-06  4.85E-04       NaN  0.00000
    748.   13.369  8.68E-06  4.85E-04  1.55E-41  8.68E-40  0.00E+00  0.00E+00  8.68E-06  4.85E-04       NaN  0.00000
    750.   13.333  8.82E-06  4.96E-04  2.85E-41  1.60E-39  0.00E+00  0.00E+00  8.82E-06  4.96E-04       NaN  0.00000
    752.   13.298  8.79E-06  4.97E-04  1.77E-41  1.00E-39  0.00E+00  0.00E+00  8.79E-06  4.97E-04       NaN  0.00000
    754.   13.263  8.51E-06  4.84E-04  2.88E-42  1.64E-40  0.00E+00  0.00E+00  8.51E-06  4.84E-04       NaN  0.00000
    756.   13.228  8.62E-06  4.92E-04  3.11E-41  1.78E-39  0.00E+00  0.00E+00  8.62E-06  4.92E-04       NaN  0.00000
    758.   13.193  8.88E-06  5.10E-04  8.25E-41  4.74E-39  0.00E+00  0.00E+00  8.88E-06  5.10E-04       NaN  0.00000
    760.   13.158  8.85E-06  5.11E-04  7.58E-41  4.38E-39  0.00E+00  0.00E+00  8.85E-06  5.11E-04       NaN  0.00000
    762.   13.123  8.86E-06  5.14E-04  9.23E-41  5.36E-39  0.00E+00  0.00E+00  8.86E-06  5.14E-04       NaN  0.00000
    764.   13.089  8.86E-06  5.17E-04  1.16E-40  6.76E-39  0.00E+00  0.00E+00  8.86E-06  5.17E-04       NaN  0.00000
    766.   13.055  8.82E-06  5.18E-04  9.03E-41  5.30E-39  0.00E+00  0.00E+00  8.82E-06  5.18E-04       NaN  0.00000
    768.   13.021  8.64E-06  5.10E-04  3.95E-41  2.33E-39  0.00E+00  0.00E+00  8.64E-06  5.10E-04       NaN  0.00000
    770.   12.987  8.57E-06  5.08E-04  2.79E-41  1.66E-39  0.00E+00  0.00E+00  8.57E-06  5.08E-04       NaN  0.00000
    772.   12.953  8.75E-06  5.21E-04  6.74E-41  4.02E-39  0.00E+00  0.00E+00  8.75E-06  5.21E-04       NaN  0.00000
    774.   12.920  8.68E-06  5.20E-04  5.35E-41  3.21E-39  0.00E+00  0.00E+00  8.68E-06  5.20E-04       NaN  0.00000
    776.   12.887  8.36E-06  5.04E-04  1.07E-41  6.42E-40  0.00E+00  0.00E+00  8.36E-06  5.04E-04       NaN  0.00000
    778.   12.853  8.39E-06  5.08E-04  1.16E-41  7.02E-40  0.00E+00  0.00E+00  8.39E-06  5.08E-04       NaN  0.00000
    780.   12.821  8.61E-06  5.24E-04  3.58E-41  2.18E-39  0.00E+00  0.00E+00  8.61E-06  5.24E-04       NaN  0.00000
    782.   12.788  8.55E-06  5.23E-04  4.38E-41  2.68E-39  0.00E+00  0.00E+00  8.55E-06  5.23E-04       NaN  0.00000
    784.   12.755  8.23E-06  5.06E-04  1.48E-41  9.09E-40  0.00E+00  0.00E+00  8.23E-06  5.06E-04       NaN  0.00000
    786.   12.723  8.47E-06  5.23E-04  4.05E-41  2.50E-39  0.00E+00  0.00E+00  8.47E-06  5.23E-04       NaN  0.00000
    788.   12.690  8.63E-06  5.36E-04  8.05E-41  5.00E-39  0.00E+00  0.00E+00  8.63E-06  5.36E-04       NaN  0.00000
    790.   12.658  8.60E-06  5.37E-04  8.48E-41  5.29E-39  0.00E+00  0.00E+00  8.60E-06  5.37E-04       NaN  0.00000
    792.   12.626  8.48E-06  5.32E-04  4.06E-41  2.55E-39  0.00E+00  0.00E+00  8.48E-06  5.32E-04       NaN  0.00000
    794.   12.594  8.20E-06  5.17E-04  4.59E-42  2.89E-40  0.00E+00  0.00E+00  8.20E-06  5.17E-04       NaN  0.00000
    796.   12.563  7.99E-06  5.06E-04  6.50E-43  4.12E-41  0.00E+00  0.00E+00  7.99E-06  5.06E-04       NaN  0.00000
    798.   12.531  7.88E-06  5.02E-04  1.41E-42  8.96E-41  0.00E+00  0.00E+00  7.88E-06  5.02E-04       NaN  0.00000
    800.   12.500  8.10E-06  5.19E-04  1.53E-41  9.80E-40  0.00E+00  0.00E+00  8.10E-06  5.19E-04       NaN  0.00000
  iv          805
1                                             RADIANCE(WATTS/CM2-STER-XXX)
0  FREQ   WAVLEN    PATH THERMAL      SURFACE EMISSION    SURFACE REFLECTED     TOTAL RADIANCE   INTEGRAL    TOTAL
  (CM-1) (MICRN)    (CM-1)   (MICRN)    (CM-1)   (MICRN)    (CM-1)   (MICRN)    (CM-1)   (MICRN)    (CM-1)   TRANS

    802.   12.469  8.35E-06  5.37E-04  1.93E-41  1.24E-39  0.00E+00  0.00E+00  8.35E-06  5.37E-04       NaN  0.00000
    804.   12.438  8.21E-06  5.31E-04  2.13E-41  1.37E-39  0.00E+00  0.00E+00  8.21E-06  5.31E-04       NaN  0.00000
    806.   12.407  8.30E-06  5.39E-04  3.78E-41  2.45E-39  0.00E+00  0.00E+00  8.30E-06  5.39E-04       NaN  0.00000
    808.   12.376  8.20E-06  5.35E-04  3.06E-41  2.00E-39  0.00E+00  0.00E+00  8.20E-06  5.35E-04       NaN  0.00000
    810.   12.346  8.34E-06  5.47E-04  6.30E-41  4.13E-39  0.00E+00  0.00E+00  8.34E-06  5.47E-04       NaN  0.00000
    812.   12.315  8.36E-06  5.51E-04  5.51E-41  3.64E-39  0.00E+00  0.00E+00  8.36E-06  5.51E-04       NaN  0.00000
    814.   12.285  8.15E-06  5.40E-04  1.15E-41  7.62E-40  0.00E+00  0.00E+00  8.15E-06  5.40E-04       NaN  0.00000
    816.   12.255  8.23E-06  5.48E-04  1.39E-42  9.27E-41  0.00E+00  0.00E+00  8.23E-06  5.48E-04       NaN  0.00000
    818.   12.225  8.35E-06  5.59E-04  3.83E-42  2.56E-40  0.00E+00  0.00E+00  8.35E-06  5.59E-04       NaN  0.00000
    820.   12.195  8.34E-06  5.61E-04  8.37E-42  5.63E-40  0.00E+00  0.00E+00  8.34E-06  5.61E-04       NaN  0.00000
    822.   12.165  8.31E-06  5.62E-04  1.64E-41  1.11E-39  0.00E+00  0.00E+00  8.31E-06  5.62E-04       NaN  0.00000
    824.   12.136  8.22E-06  5.58E-04  2.36E-41  1.60E-39  0.00E+00  0.00E+00  8.22E-06  5.58E-04       NaN  0.00000
    826.   12.107  8.11E-06  5.53E-04  2.85E-41  1.95E-39  0.00E+00  0.00E+00  8.11E-06  5.53E-04       NaN  0.00000
    828.   12.077  8.04E-06  5.52E-04  9.65E-41  6.62E-39  0.00E+00  0.00E+00  8.04E-06  5.52E-04       NaN  0.00000
    830.   12.048  8.17E-06  5.63E-04  3.86E-40  2.66E-38  0.00E+00  0.00E+00  8.17E-06  5.63E-04       NaN  0.00000
    832.   12.019  8.21E-06  5.69E-04  8.94E-40  6.19E-38  0.00E+00  0.00E+00  8.21E-06  5.69E-04       NaN  0.00000
    834.   11.990  8.19E-06  5.69E-04  1.37E-39  9.54E-38  0.00E+00  0.00E+00  8.19E-06  5.69E-04       NaN  0.00000
    836.   11.962  8.15E-06  5.69E-04  3.41E-39  2.38E-37  0.00E+00  0.00E+00  8.15E-06  5.69E-04       NaN  0.00000
    838.   11.933  8.08E-06  5.67E-04  5.57E-39  3.91E-37  0.00E+00  0.00E+00  8.08E-06  5.67E-04       NaN  0.00000
    840.   11.905  7.92E-06  5.59E-04  5.97E-39  4.21E-37  0.00E+00  0.00E+00  7.92E-06  5.59E-04       NaN  0.00000
    842.   11.876  7.98E-06  5.66E-04  2.25E-38  1.59E-36  0.00E+00  0.00E+00  7.98E-06  5.66E-04       NaN  0.00000
    844.   11.848  8.07E-06  5.75E-04  5.82E-38  4.14E-36  0.00E+00  0.00E+00  8.07E-06  5.75E-04       NaN  0.00000
    846.   11.820  8.07E-06  5.77E-04  1.43E-37  1.02E-35  0.00E+00  0.00E+00  8.07E-06  5.77E-04       NaN  0.00000
    848.   11.792  7.98E-06  5.74E-04  1.91E-37  1.37E-35  0.00E+00  0.00E+00  7.98E-06  5.74E-04       NaN  0.00000
    850.   11.765  7.75E-06  5.60E-04  1.28E-37  9.26E-36  0.00E+00  0.00E+00  7.75E-06  5.60E-04       NaN  0.00000
    852.   11.737  7.56E-06  5.49E-04  8.31E-38  6.03E-36  0.00E+00  0.00E+00  7.56E-06  5.49E-04       NaN  0.00000
    854.   11.710  7.67E-06  5.60E-04  3.93E-37  2.86E-35  0.00E+00  0.00E+00  7.67E-06  5.60E-04       NaN  0.00000
    856.   11.682  7.85E-06  5.75E-04  3.23E-36  2.36E-34  0.00E+00  0.00E+00  7.85E-06  5.75E-04       NaN  0.00000
    858.   11.655  7.93E-06  5.84E-04  7.13E-36  5.25E-34  0.00E+00  0.00E+00  7.93E-06  5.84E-04       NaN  0.00000
    860.   11.628  7.91E-06  5.85E-04  1.21E-35  8.94E-34  0.00E+00  0.00E+00  7.91E-06  5.85E-04       NaN  0.00000
    862.   11.601  7.90E-06  5.87E-04  2.11E-35  1.57E-33  0.00E+00  0.00E+00  7.90E-06  5.87E-04       NaN  0.00000
    864.   11.574  7.80E-06  5.82E-04  2.21E-35  1.65E-33  0.00E+00  0.00E+00  7.80E-06  5.82E-04       NaN  0.00000
    866.   11.547  7.77E-06  5.83E-04  5.58E-35  4.18E-33  0.00E+00  0.00E+00  7.77E-06  5.83E-04       NaN  0.00000
    868.   11.521  7.83E-06  5.90E-04  1.37E-34  1.03E-32  0.00E+00  0.00E+00  7.83E-06  5.90E-04       NaN  0.00000
    870.   11.494  7.72E-06  5.84E-04  1.50E-34  1.14E-32  0.00E+00  0.00E+00  7.72E-06  5.84E-04       NaN  0.00000
    872.   11.468  7.69E-06  5.85E-04  2.30E-34  1.75E-32  0.00E+00  0.00E+00  7.69E-06  5.85E-04       NaN  0.00000
    874.   11.442  7.76E-06  5.93E-04  4.86E-34  3.72E-32  0.00E+00  0.00E+00  7.76E-06  5.93E-04       NaN  0.00000
    876.   11.416  7.74E-06  5.94E-04  9.24E-34  7.09E-32  0.00E+00  0.00E+00  7.74E-06  5.94E-04       NaN  0.00000
    878.   11.390  7.65E-06  5.89E-04  1.20E-33  9.22E-32  0.00E+00  0.00E+00  7.65E-06  5.89E-04       NaN  0.00000
    880.   11.364  7.59E-06  5.88E-04  1.92E-33  1.48E-31  0.00E+00  0.00E+00  7.59E-06  5.88E-04       NaN  0.00000
    882.   11.338  7.59E-06  5.91E-04  2.56E-33  1.99E-31  0.00E+00  0.00E+00  7.59E-06  5.91E-04       NaN  0.00000
    884.   11.312  7.54E-06  5.89E-04  3.73E-33  2.92E-31  0.00E+00  0.00E+00  7.54E-06  5.89E-04       NaN  0.00000
    886.   11.287  7.47E-06  5.86E-04  6.20E-33  4.87E-31  0.00E+00  0.00E+00  7.47E-06  5.86E-04       NaN  0.00000
    888.   11.261  7.43E-06  5.86E-04  8.34E-33  6.57E-31  0.00E+00  0.00E+00  7.43E-06  5.86E-04       NaN  0.00000
    890.   11.236  7.51E-06  5.95E-04  1.92E-32  1.52E-30  0.00E+00  0.00E+00  7.51E-06  5.95E-04       NaN  0.00000
    892.   11.211  7.54E-06  6.00E-04  4.63E-32  3.69E-30  0.00E+00  0.00E+00  7.54E-06  6.00E-04       NaN  0.00000
    894.   11.186  7.54E-06  6.03E-04  7.75E-32  6.19E-30  0.00E+00  0.00E+00  7.54E-06  6.03E-04       NaN  0.00000
    896.   11.161  7.51E-06  6.03E-04  1.21E-31  9.68E-30  0.00E+00  0.00E+00  7.51E-06  6.03E-04       NaN  0.00000
    898.   11.136  7.48E-06  6.03E-04  2.13E-31  1.72E-29  0.00E+00  0.00E+00  7.48E-06  6.03E-04       NaN  0.00000
    900.   11.111  7.47E-06  6.05E-04  3.80E-31  3.07E-29  0.00E+00  0.00E+00  7.47E-06  6.05E-04       NaN  0.00000
  iv          905
1                                             RADIANCE(WATTS/CM2-STER-XXX)
0  FREQ   WAVLEN    PATH THERMAL      SURFACE EMISSION    SURFACE REFLECTED     TOTAL RADIANCE   INTEGRAL    TOTAL
  (CM-1) (MICRN)    (CM-1)   (MICRN)    (CM-1)   (MICRN)    (CM-1)   (MICRN)    (CM-1)   (MICRN)    (CM-1)   TRANS

    902.   11.086  7.45E-06  6.06E-04  5.37E-31  4.37E-29  0.00E+00  0.00E+00  7.45E-06  6.06E-04       NaN  0.00000
    904.   11.062  7.41E-06  6.06E-04  6.43E-31  5.25E-29  0.00E+00  0.00E+00  7.41E-06  6.06E-04       NaN  0.00000
    906.   11.038  7.36E-06  6.04E-04  7.70E-31  6.32E-29  0.00E+00  0.00E+00  7.36E-06  6.04E-04       NaN  0.00000
    908.   11.013  7.24E-06  5.97E-04  7.76E-31  6.40E-29  0.00E+00  0.00E+00  7.24E-06  5.97E-04       NaN  0.00000
    910.   10.989  7.23E-06  5.99E-04  1.57E-30  1.30E-28  0.00E+00  0.00E+00  7.23E-06  5.99E-04       NaN  0.00000
    912.   10.965  7.32E-06  6.09E-04  2.95E-30  2.45E-28  0.00E+00  0.00E+00  7.32E-06  6.09E-04       NaN  0.00000
    914.   10.941  7.29E-06  6.09E-04  3.59E-30  3.00E-28  0.00E+00  0.00E+00  7.29E-06  6.09E-04       NaN  0.00000
    916.   10.917  7.27E-06  6.10E-04  6.14E-30  5.15E-28  0.00E+00  0.00E+00  7.27E-06  6.10E-04       NaN  0.00000
    918.   10.893  7.23E-06  6.09E-04  9.37E-30  7.89E-28  0.00E+00  0.00E+00  7.23E-06  6.09E-04       NaN  0.00000
    920.   10.870  7.18E-06  6.08E-04  1.12E-29  9.51E-28  0.00E+00  0.00E+00  7.18E-06  6.08E-04       NaN  0.00000
    922.   10.846  7.08E-06  6.02E-04  8.28E-30  7.04E-28  0.00E+00  0.00E+00  7.08E-06  6.02E-04       NaN  0.00000
    924.   10.823  7.05E-06  6.02E-04  1.07E-29  9.11E-28  0.00E+00  0.00E+00  7.05E-06  6.02E-04       NaN  0.00000
    926.   10.799  7.07E-06  6.06E-04  2.78E-29  2.39E-27  0.00E+00  0.00E+00  7.07E-06  6.06E-04       NaN  0.00000
    928.   10.776  7.13E-06  6.14E-04  4.73E-29  4.08E-27  0.00E+00  0.00E+00  7.13E-06  6.14E-04       NaN  0.00000
    930.   10.753  7.11E-06  6.15E-04  8.77E-29  7.58E-27  0.00E+00  0.00E+00  7.11E-06  6.15E-04       NaN  0.00000
    932.   10.730  7.10E-06  6.17E-04  1.83E-28  1.59E-26  0.00E+00  0.00E+00  7.10E-06  6.17E-04       NaN  0.00000
    934.   10.707  7.08E-06  6.18E-04  3.09E-28  2.69E-26  0.00E+00  0.00E+00  7.08E-06  6.18E-04       NaN  0.00000
    936.   10.684  7.06E-06  6.18E-04  5.04E-28  4.42E-26  0.00E+00  0.00E+00  7.06E-06  6.18E-04       NaN  0.00000
    938.   10.661  7.04E-06  6.19E-04  8.07E-28  7.10E-26  0.00E+00  0.00E+00  7.04E-06  6.19E-04       NaN  0.00000
    940.   10.638  7.00E-06  6.19E-04  1.17E-27  1.04E-25  0.00E+00  0.00E+00  7.00E-06  6.19E-04       NaN  0.00000
    942.   10.616  6.98E-06  6.20E-04  2.19E-27  1.94E-25  0.00E+00  0.00E+00  6.98E-06  6.20E-04       NaN  0.00000
    944.   10.593  6.96E-06  6.20E-04  3.13E-27  2.79E-25  0.00E+00  0.00E+00  6.96E-06  6.20E-04       NaN  0.00000
    946.   10.571  6.88E-06  6.16E-04  4.24E-27  3.79E-25  0.00E+00  0.00E+00  6.88E-06  6.16E-04       NaN  0.00000
    948.   10.549  6.78E-06  6.09E-04  5.49E-27  4.94E-25  0.00E+00  0.00E+00  6.78E-06  6.09E-04       NaN  0.00000
    950.   10.526  6.86E-06  6.19E-04  1.42E-26  1.28E-24  0.00E+00  0.00E+00  6.86E-06  6.19E-04       NaN  0.00000
    952.   10.504  6.86E-06  6.22E-04  2.23E-26  2.02E-24  0.00E+00  0.00E+00  6.86E-06  6.22E-04       NaN  0.00000
    954.   10.482  6.78E-06  6.17E-04  2.44E-26  2.22E-24  0.00E+00  0.00E+00  6.78E-06  6.17E-04       NaN  0.00000
    956.   10.460  6.78E-06  6.20E-04  5.12E-26  4.68E-24  0.00E+00  0.00E+00  6.78E-06  6.20E-04       NaN  0.00000
    958.   10.438  6.81E-06  6.25E-04  8.43E-26  7.73E-24  0.00E+00  0.00E+00  6.81E-06  6.25E-04       NaN  0.00000
    960.   10.417  6.77E-06  6.24E-04  1.24E-25  1.15E-23  0.00E+00  0.00E+00  6.77E-06  6.24E-04       NaN  0.00000
    962.   10.395  6.78E-06  6.27E-04  2.96E-25  2.74E-23  0.00E+00  0.00E+00  6.78E-06  6.27E-04       NaN  0.00000
    964.   10.373  6.77E-06  6.29E-04  4.77E-25  4.43E-23  0.00E+00  0.00E+00  6.77E-06  6.29E-04       NaN  0.00000
    966.   10.352  6.71E-06  6.26E-04  5.78E-25  5.39E-23  0.00E+00  0.00E+00  6.71E-06  6.26E-04       NaN  0.00000
    968.   10.331  6.70E-06  6.28E-04  9.90E-25  9.28E-23  0.00E+00  0.00E+00  6.70E-06  6.28E-04       NaN  0.00000
    970.   10.309  6.65E-06  6.26E-04  1.16E-24  1.09E-22  0.00E+00  0.00E+00  6.65E-06  6.26E-04       NaN  0.00000
    972.   10.288  6.57E-06  6.21E-04  1.38E-24  1.30E-22  0.00E+00  0.00E+00  6.57E-06  6.21E-04       NaN  0.00000
    974.   10.267  6.55E-06  6.21E-04  2.48E-24  2.35E-22  0.00E+00  0.00E+00  6.55E-06  6.21E-04       NaN  0.00000
    976.   10.246  6.52E-06  6.21E-04  3.78E-24  3.60E-22  0.00E+00  0.00E+00  6.52E-06  6.21E-04       NaN  0.00000
    978.   10.225  6.57E-06  6.28E-04  8.03E-24  7.68E-22  0.00E+00  0.00E+00  6.57E-06  6.28E-04       NaN  0.00000
    980.   10.204  6.60E-06  6.34E-04  1.43E-23  1.37E-21  0.00E+00  0.00E+00  6.60E-06  6.34E-04       NaN  0.00000
    982.   10.183  6.57E-06  6.33E-04  2.33E-23  2.25E-21  0.00E+00  0.00E+00  6.57E-06  6.33E-04       NaN  0.00000
    984.   10.163  6.54E-06  6.34E-04  3.53E-23  3.42E-21  0.00E+00  0.00E+00  6.54E-06  6.34E-04       NaN  0.00000
    986.   10.142  6.54E-06  6.36E-04  5.90E-23  5.73E-21  0.00E+00  0.00E+00  6.54E-06  6.36E-04       NaN  0.00000
    988.   10.121  6.53E-06  6.37E-04  8.14E-23  7.94E-21  0.00E+00  0.00E+00  6.53E-06  6.37E-04       NaN  0.00000
    990.   10.101  6.50E-06  6.37E-04  1.15E-22  1.12E-20  0.00E+00  0.00E+00  6.50E-06  6.37E-04       NaN  0.00000
    992.   10.081  6.48E-06  6.38E-04  1.94E-22  1.91E-20  0.00E+00  0.00E+00  6.48E-06  6.38E-04       NaN  0.00000
    994.   10.060  6.46E-06  6.39E-04  2.73E-22  2.70E-20  0.00E+00  0.00E+00  6.46E-06  6.39E-04       NaN  0.00000
    996.   10.040  6.44E-06  6.39E-04  3.74E-22  3.71E-20  0.00E+00  0.00E+00  6.44E-06  6.39E-04       NaN  0.00000
    998.   10.020  6.38E-06  6.35E-04  3.78E-22  3.76E-20  0.00E+00  0.00E+00  6.38E-06  6.35E-04       NaN  0.00000
   1000.   10.000  6.32E-06  6.32E-04  4.78E-22  4.78E-20  0.00E+00  0.00E+00  6.32E-06  6.32E-04       NaN  0.00000
  iv         1005
1                                             RADIANCE(WATTS/CM2-STER-XXX)
0  FREQ   WAVLEN    PATH THERMAL      SURFACE EMISSION    SURFACE REFLECTED     TOTAL RADIANCE   INTEGRAL    TOTAL
  (CM-1) (MICRN)    (CM-1)   (MICRN)    (CM-1)   (MICRN)    (CM-1)   (MICRN)    (CM-1)   (MICRN)    (CM-1)   TRANS

   1002.    9.980  6.34E-06  6.36E-04  9.11E-22  9.14E-20  0.00E+00  0.00E+00  6.34E-06  6.36E-04       NaN  0.00000
   1004.    9.960  6.29E-06  6.34E-04  1.26E-21  1.27E-19  0.00E+00  0.00E+00  6.29E-06  6.34E-04       NaN  0.00000
   1006.    9.940  6.31E-06  6.38E-04  1.94E-21  1.96E-19  0.00E+00  0.00E+00  6.31E-06  6.38E-04       NaN  0.00000
   1008.    9.921  6.28E-06  6.38E-04  2.39E-21  2.43E-19  0.00E+00  0.00E+00  6.28E-06  6.38E-04       NaN  0.00000
   1010.    9.901  6.17E-06  6.30E-04  2.23E-21  2.28E-19  0.00E+00  0.00E+00  6.17E-06  6.30E-04       NaN  0.00000
   1012.    9.881  6.15E-06  6.30E-04  4.00E-21  4.09E-19  0.00E+00  0.00E+00  6.15E-06  6.30E-04       NaN  0.00000
   1014.    9.862  6.10E-06  6.27E-04  5.18E-21  5.32E-19  0.00E+00  0.00E+00  6.10E-06  6.27E-04       NaN  0.00000
   1016.    9.843  6.12E-06  6.32E-04  6.99E-21  7.21E-19  0.00E+00  0.00E+00  6.12E-06  6.32E-04       NaN  0.00000
   1018.    9.823  6.08E-06  6.31E-04  9.15E-21  9.49E-19  0.00E+00  0.00E+00  6.08E-06  6.31E-04       NaN  0.00000
   1020.    9.804  6.14E-06  6.39E-04  1.87E-20  1.95E-18  0.00E+00  0.00E+00  6.14E-06  6.39E-04       NaN  0.00000
   1022.    9.785  6.16E-06  6.43E-04  3.45E-20  3.61E-18  0.00E+00  0.00E+00  6.16E-06  6.43E-04       NaN  0.00000
   1024.    9.766  6.15E-06  6.45E-04  5.44E-20  5.70E-18  0.00E+00  0.00E+00  6.15E-06  6.45E-04       NaN  0.00000
   1026.    9.747  6.10E-06  6.42E-04  6.24E-20  6.57E-18  0.00E+00  0.00E+00  6.10E-06  6.42E-04       NaN  0.00000
   1028.    9.728  5.91E-06  6.24E-04  3.72E-20  3.93E-18  0.00E+00  0.00E+00  5.91E-06  6.24E-04       NaN  0.00000
   1030.    9.709  5.89E-06  6.25E-04  4.26E-20  4.52E-18  0.00E+00  0.00E+00  5.89E-06  6.25E-04       NaN  0.00000
   1032.    9.690  6.00E-06  6.39E-04  1.17E-19  1.24E-17  0.00E+00  0.00E+00  6.00E-06  6.39E-04       NaN  0.00000
   1034.    9.671  6.03E-06  6.45E-04  2.26E-19  2.42E-17  0.00E+00  0.00E+00  6.03E-06  6.45E-04       NaN  0.00000
   1036.    9.653  6.02E-06  6.46E-04  3.04E-19  3.27E-17  0.00E+00  0.00E+00  6.02E-06  6.46E-04       NaN  0.00000
   1038.    9.634  5.95E-06  6.41E-04  2.61E-19  2.82E-17  0.00E+00  0.00E+00  5.95E-06  6.41E-04       NaN  0.00000
   1040.    9.615  5.92E-06  6.40E-04  3.41E-19  3.69E-17  0.00E+00  0.00E+00  5.92E-06  6.40E-04       NaN  0.00000
   1042.    9.597  5.93E-06  6.44E-04  6.03E-19  6.55E-17  0.00E+00  0.00E+00  5.93E-06  6.44E-04       NaN  0.00000
   1044.    9.579  5.92E-06  6.45E-04  9.11E-19  9.93E-17  0.00E+00  0.00E+00  5.92E-06  6.45E-04       NaN  0.00000
   1046.    9.560  5.92E-06  6.48E-04  1.24E-18  1.35E-16  0.00E+00  0.00E+00  5.92E-06  6.48E-04       NaN  0.00000
   1048.    9.542  5.84E-06  6.41E-04  1.11E-18  1.22E-16  0.00E+00  0.00E+00  5.84E-06  6.41E-04       NaN  0.00000
   1050.    9.524  5.75E-06  6.34E-04  8.71E-19  9.61E-17  0.00E+00  0.00E+00  5.75E-06  6.34E-04       NaN  0.00000
   1052.    9.506  5.79E-06  6.41E-04  1.73E-18  1.91E-16  0.00E+00  0.00E+00  5.79E-06  6.41E-04       NaN  0.00000
   1054.    9.488  5.80E-06  6.45E-04  2.65E-18  2.94E-16  0.00E+00  0.00E+00  5.80E-06  6.45E-04       NaN  0.00000
   1056.    9.470  5.73E-06  6.39E-04  2.78E-18  3.10E-16  0.00E+00  0.00E+00  5.73E-06  6.39E-04       NaN  0.00000
   1058.    9.452  5.72E-06  6.40E-04  3.06E-18  3.42E-16  0.00E+00  0.00E+00  5.72E-06  6.40E-04       NaN  0.00000
   1060.    9.434  5.66E-06  6.36E-04  2.88E-18  3.23E-16  0.00E+00  0.00E+00  5.66E-06  6.36E-04       NaN  0.00000
   1062.    9.416  5.64E-06  6.36E-04  3.51E-18  3.96E-16  0.00E+00  0.00E+00  5.64E-06  6.36E-04       NaN  0.00000
   1064.    9.398  5.54E-06  6.28E-04  3.87E-18  4.38E-16  0.00E+00  0.00E+00  5.54E-06  6.28E-04       NaN  0.00000
   1066.    9.381  5.35E-06  6.07E-04  2.65E-18  3.01E-16  0.00E+00  0.00E+00  5.35E-06  6.07E-04       NaN  0.00000
   1068.    9.363  5.53E-06  6.31E-04  5.99E-18  6.83E-16  0.00E+00  0.00E+00  5.53E-06  6.31E-04       NaN  0.00000
   1070.    9.346  5.65E-06  6.46E-04  1.03E-17  1.18E-15  0.00E+00  0.00E+00  5.65E-06  6.46E-04       NaN  0.00000
   1072.    9.328  5.52E-06  6.34E-04  8.15E-18  9.37E-16  0.00E+00  0.00E+00  5.52E-06  6.34E-04       NaN  0.00000
   1074.    9.311  5.34E-06  6.16E-04  4.41E-18  5.08E-16  0.00E+00  0.00E+00  5.34E-06  6.16E-04       NaN  0.00000
   1076.    9.294  5.46E-06  6.32E-04  9.57E-18  1.11E-15  0.00E+00  0.00E+00  5.46E-06  6.32E-04       NaN  0.00000
   1078.    9.276  5.54E-06  6.44E-04  1.74E-17  2.02E-15  0.00E+00  0.00E+00  5.54E-06  6.44E-04       NaN  0.00000
   1080.    9.259  5.52E-06  6.44E-04  1.92E-17  2.24E-15  0.00E+00  0.00E+00  5.52E-06  6.44E-04       NaN  0.00000
   1082.    9.242  5.49E-06  6.43E-04  2.16E-17  2.53E-15  0.00E+00  0.00E+00  5.49E-06  6.43E-04       NaN  0.00000
   1084.    9.225  5.44E-06  6.39E-04  2.17E-17  2.55E-15  0.00E+00  0.00E+00  5.44E-06  6.39E-04       NaN  0.00000
   1086.    9.208  5.41E-06  6.38E-04  2.25E-17  2.66E-15  0.00E+00  0.00E+00  5.41E-06  6.38E-04       NaN  0.00000
   1088.    9.191  5.41E-06  6.41E-04  2.62E-17  3.10E-15  0.00E+00  0.00E+00  5.41E-06  6.41E-04       NaN  0.00000
   1090.    9.174  5.26E-06  6.25E-04  1.82E-17  2.16E-15  0.00E+00  0.00E+00  5.26E-06  6.25E-04       NaN  0.00000
   1092.    9.158  5.23E-06  6.23E-04  1.67E-17  2.00E-15  0.00E+00  0.00E+00  5.23E-06  6.23E-04       NaN  0.00000
   1094.    9.141  5.35E-06  6.41E-04  3.48E-17  4.17E-15  0.00E+00  0.00E+00  5.35E-06  6.41E-04       NaN  0.00000
   1096.    9.124  5.34E-06  6.42E-04  4.20E-17  5.05E-15  0.00E+00  0.00E+00  5.34E-06  6.42E-04       NaN  0.00000
   1098.    9.107  5.23E-06  6.31E-04  2.95E-17  3.56E-15  0.00E+00  0.00E+00  5.23E-06  6.31E-04       NaN  0.00000
   1100.    9.091  4.92E-06  5.95E-04  8.58E-18  1.04E-15  0.00E+00  0.00E+00  4.92E-06  5.95E-04       NaN  0.00000
  iv         1105
1                                             RADIANCE(WATTS/CM2-STER-XXX)
0  FREQ   WAVLEN    PATH THERMAL      SURFACE EMISSION    SURFACE REFLECTED     TOTAL RADIANCE   INTEGRAL    TOTAL
  (CM-1) (MICRN)    (CM-1)   (MICRN)    (CM-1)   (MICRN)    (CM-1)   (MICRN)    (CM-1)   (MICRN)    (CM-1)   TRANS

   1102.    9.074  5.00E-06  6.07E-04  1.55E-17  1.88E-15  0.00E+00  0.00E+00  5.00E-06  6.07E-04       NaN  0.00000
   1104.    9.058  5.19E-06  6.33E-04  3.16E-17  3.85E-15  0.00E+00  0.00E+00  5.19E-06  6.33E-04       NaN  0.00000
   1106.    9.042  4.95E-06  6.06E-04  1.61E-17  1.97E-15  0.00E+00  0.00E+00  4.95E-06  6.06E-04       NaN  0.00000
   1108.    9.025  4.95E-06  6.07E-04  1.96E-17  2.41E-15  0.00E+00  0.00E+00  4.95E-06  6.07E-04       NaN  0.00000
   1110.    9.009  5.00E-06  6.15E-04  2.40E-17  2.95E-15  0.00E+00  0.00E+00  5.00E-06  6.15E-04       NaN  0.00000
   1112.    8.993  4.79E-06  5.92E-04  2.28E-17  2.82E-15  0.00E+00  0.00E+00  4.79E-06  5.92E-04       NaN  0.00000
   1114.    8.977  5.00E-06  6.21E-04  5.33E-17  6.62E-15  0.00E+00  0.00E+00  5.00E-06  6.21E-04       NaN  0.00000
   1116.    8.961  5.07E-06  6.31E-04  6.20E-17  7.72E-15  0.00E+00  0.00E+00  5.07E-06  6.31E-04       NaN  0.00000
   1118.    8.945  5.00E-06  6.25E-04  4.52E-17  5.65E-15  0.00E+00  0.00E+00  5.00E-06  6.25E-04       NaN  0.00000
   1120.    8.929  4.71E-06  5.90E-04  2.05E-17  2.57E-15  0.00E+00  0.00E+00  4.71E-06  5.90E-04       NaN  0.00000
   1122.    8.913  4.68E-06  5.89E-04  2.47E-17  3.11E-15  0.00E+00  0.00E+00  4.68E-06  5.89E-04       NaN  0.00000
   1124.    8.897  4.96E-06  6.27E-04  7.12E-17  8.99E-15  0.00E+00  0.00E+00  4.96E-06  6.27E-04       NaN  0.00000
   1126.    8.881  4.97E-06  6.30E-04  9.83E-17  1.25E-14  0.00E+00  0.00E+00  4.97E-06  6.30E-04       NaN  0.00000
   1128.    8.865  4.95E-06  6.30E-04  1.04E-16  1.32E-14  0.00E+00  0.00E+00  4.95E-06  6.30E-04       NaN  0.00000
   1130.    8.850  4.91E-06  6.27E-04  9.08E-17  1.16E-14  0.00E+00  0.00E+00  4.91E-06  6.27E-04       NaN  0.00000
   1132.    8.834  4.85E-06  6.22E-04  6.70E-17  8.59E-15  0.00E+00  0.00E+00  4.85E-06  6.22E-04       NaN  0.00000
   1134.    8.818  4.49E-06  5.77E-04  2.24E-17  2.89E-15  0.00E+00  0.00E+00  4.49E-06  5.77E-04       NaN  0.00000
   1136.    8.803  3.90E-06  5.03E-04  1.39E-18  1.79E-16  0.00E+00  0.00E+00  3.90E-06  5.03E-04       NaN  0.00000
   1138.    8.787  4.32E-06  5.59E-04  2.18E-17  2.83E-15  0.00E+00  0.00E+00  4.32E-06  5.59E-04       NaN  0.00000
   1140.    8.772  4.75E-06  6.17E-04  6.87E-17  8.93E-15  0.00E+00  0.00E+00  4.75E-06  6.17E-04       NaN  0.00000
   1142.    8.757  4.75E-06  6.19E-04  9.65E-17  1.26E-14  0.00E+00  0.00E+00  4.75E-06  6.19E-04       NaN  0.00000
   1144.    8.741  4.75E-06  6.22E-04  1.29E-16  1.69E-14  0.00E+00  0.00E+00  4.75E-06  6.22E-04       NaN  0.00000
   1146.    8.726  4.73E-06  6.21E-04  1.25E-16  1.64E-14  0.00E+00  0.00E+00  4.73E-06  6.21E-04       NaN  0.00000
   1148.    8.711  4.46E-06  5.88E-04  5.94E-17  7.82E-15  0.00E+00  0.00E+00  4.46E-06  5.88E-04       NaN  0.00000
   1150.    8.696  4.26E-06  5.63E-04  9.29E-18  1.23E-15  0.00E+00  0.00E+00  4.26E-06  5.63E-04       NaN  0.00000
   1152.    8.681  4.20E-06  5.58E-04  1.62E-17  2.15E-15  0.00E+00  0.00E+00  4.20E-06  5.58E-04       NaN  0.00000
   1154.    8.666  4.45E-06  5.93E-04  7.82E-17  1.04E-14  0.00E+00  0.00E+00  4.45E-06  5.93E-04       NaN  0.00000
   1156.    8.651  4.61E-06  6.16E-04  1.54E-16  2.06E-14  0.00E+00  0.00E+00  4.61E-06  6.16E-04       NaN  0.00000
   1158.    8.636  4.60E-06  6.16E-04  1.68E-16  2.25E-14  0.00E+00  0.00E+00  4.60E-06  6.16E-04       NaN  0.00000
   1160.    8.621  4.57E-06  6.15E-04  1.58E-16  2.12E-14  0.00E+00  0.00E+00  4.57E-06  6.15E-04       NaN  0.00000
   1162.    8.606  4.51E-06  6.09E-04  1.31E-16  1.76E-14  0.00E+00  0.00E+00  4.51E-06  6.09E-04       NaN  0.00000
   1164.    8.591  4.08E-06  5.53E-04  4.72E-17  6.40E-15  0.00E+00  0.00E+00  4.08E-06  5.53E-04       NaN  0.00000
   1166.    8.576  3.92E-06  5.34E-04  3.12E-17  4.24E-15  0.00E+00  0.00E+00  3.92E-06  5.34E-04       NaN  0.00000
   1168.    8.562  4.35E-06  5.93E-04  9.85E-17  1.34E-14  0.00E+00  0.00E+00  4.35E-06  5.93E-04       NaN  0.00000
   1170.    8.547  4.37E-06  5.99E-04  8.33E-17  1.14E-14  0.00E+00  0.00E+00  4.37E-06  5.99E-04       NaN  0.00000
   1172.    8.532  4.15E-06  5.70E-04  2.88E-17  3.96E-15  0.00E+00  0.00E+00  4.15E-06  5.70E-04       NaN  0.00000
   1174.    8.518  3.47E-06  4.78E-04  3.55E-18  4.89E-16  0.00E+00  0.00E+00  3.47E-06  4.78E-04       NaN  0.00000
   1176.    8.503  3.67E-06  5.07E-04  8.81E-18  1.22E-15  0.00E+00  0.00E+00  3.67E-06  5.07E-04       NaN  0.00000
   1178.    8.489  4.21E-06  5.84E-04  3.97E-17  5.51E-15  0.00E+00  0.00E+00  4.21E-06  5.84E-04       NaN  0.00000
   1180.    8.475  4.20E-06  5.84E-04  6.19E-17  8.62E-15  0.00E+00  0.00E+00  4.20E-06  5.84E-04       NaN  0.00000
   1182.    8.460  4.21E-06  5.88E-04  8.08E-17  1.13E-14  0.00E+00  0.00E+00  4.21E-06  5.88E-04       NaN  0.00000
   1184.    8.446  4.16E-06  5.83E-04  4.63E-17  6.49E-15  0.00E+00  0.00E+00  4.16E-06  5.83E-04       NaN  0.00000
   1186.    8.432  3.62E-06  5.10E-04  5.25E-18  7.39E-16  0.00E+00  0.00E+00  3.62E-06  5.10E-04       NaN  0.00000
   1188.    8.418  3.49E-06  4.92E-04  3.02E-18  4.27E-16  0.00E+00  0.00E+00  3.49E-06  4.92E-04       NaN  0.00000
   1190.    8.403  3.95E-06  5.59E-04  1.38E-17  1.95E-15  0.00E+00  0.00E+00  3.95E-06  5.59E-04       NaN  0.00000
   1192.    8.389  4.04E-06  5.74E-04  3.33E-17  4.73E-15  0.00E+00  0.00E+00  4.04E-06  5.74E-04       NaN  0.00000
   1194.    8.375  4.05E-06  5.77E-04  3.54E-17  5.04E-15  0.00E+00  0.00E+00  4.05E-06  5.77E-04       NaN  0.00000
   1196.    8.361  3.85E-06  5.51E-04  1.53E-17  2.19E-15  0.00E+00  0.00E+00  3.85E-06  5.51E-04       NaN  0.00000
   1198.    8.347  3.42E-06  4.91E-04  2.85E-18  4.10E-16  0.00E+00  0.00E+00  3.42E-06  4.91E-04       NaN  0.00000
   1200.    8.333  3.74E-06  5.38E-04  1.21E-17  1.74E-15  0.00E+00  0.00E+00  3.74E-06  5.38E-04       NaN  0.00000
  iv         1205
1                                             RADIANCE(WATTS/CM2-STER-XXX)
0  FREQ   WAVLEN    PATH THERMAL      SURFACE EMISSION    SURFACE REFLECTED     TOTAL RADIANCE   INTEGRAL    TOTAL
  (CM-1) (MICRN)    (CM-1)   (MICRN)    (CM-1)   (MICRN)    (CM-1)   (MICRN)    (CM-1)   (MICRN)    (CM-1)   TRANS

   1202.    8.319  4.04E-06  5.84E-04  3.64E-17  5.25E-15  0.00E+00  0.00E+00  4.04E-06  5.84E-04       NaN  0.00000
   1204.    8.306  3.98E-06  5.77E-04  3.81E-17  5.53E-15  0.00E+00  0.00E+00  3.98E-06  5.77E-04       NaN  0.00000
   1206.    8.292  3.82E-06  5.56E-04  1.57E-17  2.29E-15  0.00E+00  0.00E+00  3.82E-06  5.56E-04       NaN  0.00000
   1208.    8.278  3.82E-06  5.57E-04  7.45E-18  1.09E-15  0.00E+00  0.00E+00  3.82E-06  5.57E-04       NaN  0.00000
   1210.    8.264  3.37E-06  4.94E-04  1.93E-18  2.83E-16  0.00E+00  0.00E+00  3.37E-06  4.94E-04       NaN  0.00000
   1212.    8.251  2.86E-06  4.20E-04  2.96E-20  4.35E-18  0.00E+00  0.00E+00  2.86E-06  4.20E-04       NaN  0.00000
   1214.    8.237  3.31E-06  4.89E-04  2.67E-19  3.94E-17  0.00E+00  0.00E+00  3.31E-06  4.89E-04       NaN  0.00000
   1216.    8.224  3.63E-06  5.36E-04  1.11E-18  1.64E-16  0.00E+00  0.00E+00  3.63E-06  5.36E-04       NaN  0.00000
   1218.    8.210  3.32E-06  4.92E-04  6.69E-19  9.93E-17  0.00E+00  0.00E+00  3.32E-06  4.92E-04       NaN  0.00000
   1220.    8.197  3.22E-06  4.80E-04  1.06E-19  1.57E-17  0.00E+00  0.00E+00  3.22E-06  4.80E-04       NaN  0.00000
   1222.    8.183  3.41E-06  5.10E-04  1.87E-19  2.79E-17  0.00E+00  0.00E+00  3.41E-06  5.10E-04       NaN  0.00000
   1224.    8.170  3.00E-06  4.49E-04  5.48E-20  8.22E-18  0.00E+00  0.00E+00  3.00E-06  4.49E-04       NaN  0.00000
   1226.    8.157  2.84E-06  4.27E-04  1.34E-19  2.02E-17  0.00E+00  0.00E+00  2.84E-06  4.27E-04       NaN  0.00000
   1228.    8.143  3.43E-06  5.18E-04  7.84E-19  1.18E-16  0.00E+00  0.00E+00  3.43E-06  5.18E-04       NaN  0.00000
   1230.    8.130  3.65E-06  5.52E-04  2.65E-18  4.00E-16  0.00E+00  0.00E+00  3.65E-06  5.52E-04       NaN  0.00000
   1232.    8.117  3.68E-06  5.59E-04  3.52E-18  5.34E-16  0.00E+00  0.00E+00  3.68E-06  5.59E-04       NaN  0.00000
   1234.    8.104  3.63E-06  5.53E-04  2.46E-18  3.75E-16  0.00E+00  0.00E+00  3.63E-06  5.53E-04       NaN  0.00000
   1236.    8.091  3.42E-06  5.22E-04  1.09E-18  1.66E-16  0.00E+00  0.00E+00  3.42E-06  5.22E-04       NaN  0.00000
   1238.    8.078  3.23E-06  4.96E-04  1.31E-19  2.00E-17  0.00E+00  0.00E+00  3.23E-06  4.96E-04       NaN  0.00000
   1240.    8.065  3.22E-06  4.95E-04  2.76E-20  4.25E-18  0.00E+00  0.00E+00  3.22E-06  4.95E-04       NaN  0.00000
   1242.    8.052  3.03E-06  4.67E-04  7.78E-21  1.20E-18  0.00E+00  0.00E+00  3.03E-06  4.67E-04       NaN  0.00000
   1244.    8.039  2.54E-06  3.93E-04  6.11E-22  9.45E-20  0.00E+00  0.00E+00  2.54E-06  3.93E-04       NaN  0.00000
   1246.    8.026  2.95E-06  4.58E-04  5.32E-21  8.25E-19  0.00E+00  0.00E+00  2.95E-06  4.58E-04       NaN  0.00000
   1248.    8.013  3.23E-06  5.03E-04  1.26E-20  1.97E-18  0.00E+00  0.00E+00  3.23E-06  5.03E-04       NaN  0.00000
   1250.    8.000  3.12E-06  4.88E-04  1.75E-20  2.73E-18  0.00E+00  0.00E+00  3.12E-06  4.88E-04       NaN  0.00000
   1252.    7.987  2.92E-06  4.58E-04  6.02E-21  9.43E-19  0.00E+00  0.00E+00  2.92E-06  4.58E-04       NaN  0.00000
   1254.    7.974  2.97E-06  4.68E-04  6.99E-22  1.10E-19  0.00E+00  0.00E+00  2.97E-06  4.68E-04       NaN  0.00000
   1256.    7.962  3.00E-06  4.74E-04  4.69E-22  7.40E-20  0.00E+00  0.00E+00  3.00E-06  4.74E-04       NaN  0.00000
   1258.    7.949  2.57E-06  4.07E-04  6.64E-23  1.05E-20  0.00E+00  0.00E+00  2.57E-06  4.07E-04       NaN  0.00000
   1260.    7.937  2.00E-06  3.17E-04  1.43E-25  2.27E-23  0.00E+00  0.00E+00  2.00E-06  3.17E-04       NaN  0.00000
   1262.    7.924  2.42E-06  3.86E-04  9.78E-26  1.56E-23  0.00E+00  0.00E+00  2.42E-06  3.86E-04       NaN  0.00000
   1264.    7.911  2.49E-06  3.98E-04  5.06E-26  8.09E-24  0.00E+00  0.00E+00  2.49E-06  3.98E-04       NaN  0.00000
   1266.    7.899  2.08E-06  3.34E-04  1.84E-28  2.96E-26  0.00E+00  0.00E+00  2.08E-06  3.34E-04       NaN  0.00000
   1268.    7.886  1.84E-06  2.95E-04  2.21E-35  3.56E-33  0.00E+00  0.00E+00  1.84E-06  2.95E-04       NaN  0.00000
   1270.    7.874  1.70E-06  2.74E-04  7.23E-31  1.17E-28  0.00E+00  0.00E+00  1.70E-06  2.74E-04       NaN  0.00000
   1272.    7.862  1.76E-06  2.84E-04  5.57E-30  9.01E-28  0.00E+00  0.00E+00  1.76E-06  2.84E-04       NaN  0.00000
   1274.    7.849  2.41E-06  3.91E-04  2.93E-25  4.76E-23  0.00E+00  0.00E+00  2.41E-06  3.91E-04       NaN  0.00000
   1276.    7.837  2.87E-06  4.68E-04  1.49E-24  2.42E-22  0.00E+00  0.00E+00  2.87E-06  4.68E-04       NaN  0.00000
   1278.    7.825  2.82E-06  4.61E-04  1.71E-24  2.79E-22  0.00E+00  0.00E+00  2.82E-06  4.61E-04       NaN  0.00000
   1280.    7.812  2.40E-06  3.93E-04  3.63E-25  5.95E-23  0.00E+00  0.00E+00  2.40E-06  3.93E-04       NaN  0.00000
   1282.    7.800  2.40E-06  3.95E-04  2.74E-27  4.51E-25  0.00E+00  0.00E+00  2.40E-06  3.95E-04       NaN  0.00000
   1284.    7.788  2.30E-06  3.80E-04  1.63E-27  2.69E-25  0.00E+00  0.00E+00  2.30E-06  3.80E-04       NaN  0.00000
   1286.    7.776  1.96E-06  3.25E-04  7.74E-31  1.28E-28  0.00E+00  0.00E+00  1.96E-06  3.25E-04       NaN  0.00000
   1288.    7.764  1.75E-06  2.90E-04  1.28E-37  2.13E-35  0.00E+00  0.00E+00  1.75E-06  2.90E-04       NaN  0.00000
   1290.    7.752  2.06E-06  3.43E-04  1.25E-32  2.07E-30  0.00E+00  0.00E+00  2.06E-06  3.43E-04       NaN  0.00000
   1292.    7.740  2.30E-06  3.85E-04  4.50E-30  7.51E-28  0.00E+00  0.00E+00  2.30E-06  3.85E-04       NaN  0.00000
   1294.    7.728  2.37E-06  3.97E-04  1.25E-29  2.09E-27  0.00E+00  0.00E+00  2.37E-06  3.97E-04       NaN  0.00000
   1296.    7.716  2.07E-06  3.47E-04  4.09E-30  6.87E-28  0.00E+00  0.00E+00  2.07E-06  3.47E-04       NaN  0.00000
   1298.    7.704  2.27E-06  3.82E-04  9.55E-30  1.61E-27  0.00E+00  0.00E+00  2.27E-06  3.82E-04       NaN  0.00000
   1300.    7.692  2.58E-06  4.36E-04  2.26E-29  3.82E-27  0.00E+00  0.00E+00  2.58E-06  4.36E-04       NaN  0.00000
  iv         1305
1                                             RADIANCE(WATTS/CM2-STER-XXX)
0  FREQ   WAVLEN    PATH THERMAL      SURFACE EMISSION    SURFACE REFLECTED     TOTAL RADIANCE   INTEGRAL    TOTAL
  (CM-1) (MICRN)    (CM-1)   (MICRN)    (CM-1)   (MICRN)    (CM-1)   (MICRN)    (CM-1)   (MICRN)    (CM-1)   TRANS

   1302.    7.680  2.58E-06  4.38E-04  1.65E-29  2.79E-27  0.00E+00  0.00E+00  2.58E-06  4.38E-04       NaN  0.00000
   1304.    7.669  2.39E-06  4.07E-04  3.97E-30  6.76E-28  0.00E+00  0.00E+00  2.39E-06  4.07E-04       NaN  0.00000
   1306.    7.657  1.96E-06  3.34E-04  5.94E-32  1.01E-29  0.00E+00  0.00E+00  1.96E-06  3.34E-04       NaN  0.00000
   1308.    7.645  1.68E-06  2.88E-04  2.29E-37  3.92E-35  0.00E+00  0.00E+00  1.68E-06  2.88E-04       NaN  0.00000
   1310.    7.634  1.75E-06  3.01E-04  7.63E-38  1.31E-35  0.00E+00  0.00E+00  1.75E-06  3.01E-04       NaN  0.00000
   1312.    7.622  1.44E-06  2.48E-04  0.00E+00  0.00E+00  0.00E+00  0.00E+00  1.44E-06  2.48E-04       NaN  0.00000
   1314.    7.610  1.21E-06  2.09E-04  0.00E+00  0.00E+00  0.00E+00  0.00E+00  1.21E-06  2.09E-04       NaN  0.00000
   1316.    7.599  1.24E-06  2.15E-04  0.00E+00  0.00E+00  0.00E+00  0.00E+00  1.24E-06  2.15E-04       NaN  0.00000
   1318.    7.587  1.10E-06  1.91E-04  0.00E+00  0.00E+00  0.00E+00  0.00E+00  1.10E-06  1.91E-04       NaN  0.00000
   1320.    7.576  1.16E-06  2.02E-04  0.00E+00  0.00E+00  0.00E+00  0.00E+00  1.16E-06  2.02E-04       NaN  0.00000
   1322.    7.564  1.51E-06  2.64E-04  0.00E+00  0.00E+00  0.00E+00  0.00E+00  1.51E-06  2.64E-04       NaN  0.00000
   1324.    7.553  1.72E-06  3.02E-04  0.00E+00  0.00E+00  0.00E+00  0.00E+00  1.72E-06  3.02E-04       NaN  0.00000
   1326.    7.541  1.80E-06  3.17E-04  0.00E+00  0.00E+00  0.00E+00  0.00E+00  1.80E-06  3.17E-04       NaN  0.00000
   1328.    7.530  1.68E-06  2.96E-04  0.00E+00  0.00E+00  0.00E+00  0.00E+00  1.68E-06  2.96E-04       NaN  0.00000
   1330.    7.519  1.63E-06  2.89E-04  0.00E+00  0.00E+00  0.00E+00  0.00E+00  1.63E-06  2.89E-04       NaN  0.00000
   1332.    7.508  1.66E-06  2.95E-04  0.00E+00  0.00E+00  0.00E+00  0.00E+00  1.66E-06  2.95E-04       NaN  0.00000
   1334.    7.496  1.53E-06  2.72E-04  0.00E+00  0.00E+00  0.00E+00  0.00E+00  1.53E-06  2.72E-04       NaN  0.00000
   1336.    7.485  1.24E-06  2.21E-04  0.00E+00  0.00E+00  0.00E+00  0.00E+00  1.24E-06  2.21E-04       NaN  0.00000
   1338.    7.474  9.13E-07  1.63E-04  0.00E+00  0.00E+00  0.00E+00  0.00E+00  9.13E-07  1.63E-04       NaN  0.00000
   1340.    7.463  8.69E-07  1.56E-04  0.00E+00  0.00E+00  0.00E+00  0.00E+00  8.69E-07  1.56E-04       NaN  0.00000
   1342.    7.452  1.27E-06  2.28E-04  0.00E+00  0.00E+00  0.00E+00  0.00E+00  1.27E-06  2.28E-04       NaN  0.00000
   1344.    7.440  1.52E-06  2.75E-04  0.00E+00  0.00E+00  0.00E+00  0.00E+00  1.52E-06  2.75E-04       NaN  0.00000
   1346.    7.429  1.54E-06  2.79E-04  0.00E+00  0.00E+00  0.00E+00  0.00E+00  1.54E-06  2.79E-04       NaN  0.00000
   1348.    7.418  1.32E-06  2.40E-04  0.00E+00  0.00E+00  0.00E+00  0.00E+00  1.32E-06  2.40E-04       NaN  0.00000
   1350.    7.407  1.24E-06  2.27E-04  0.00E+00  0.00E+00  0.00E+00  0.00E+00  1.24E-06  2.27E-04       NaN  0.00000
   1352.    7.396  1.44E-06  2.63E-04  0.00E+00  0.00E+00  0.00E+00  0.00E+00  1.44E-06  2.63E-04       NaN  0.00000
   1354.    7.386  1.25E-06  2.29E-04  0.00E+00  0.00E+00  0.00E+00  0.00E+00  1.25E-06  2.29E-04       NaN  0.00000
   1356.    7.375  1.20E-06  2.20E-04  0.00E+00  0.00E+00  0.00E+00  0.00E+00  1.20E-06  2.20E-04       NaN  0.00000
   1358.    7.364  1.24E-06  2.29E-04  0.00E+00  0.00E+00  0.00E+00  0.00E+00  1.24E-06  2.29E-04       NaN  0.00000
   1360.    7.353  1.06E-06  1.95E-04  0.00E+00  0.00E+00  0.00E+00  0.00E+00  1.06E-06  1.95E-04       NaN  0.00000
   1362.    7.342  7.86E-07  1.46E-04  0.00E+00  0.00E+00  0.00E+00  0.00E+00  7.86E-07  1.46E-04       NaN  0.00000
   1364.    7.331  8.75E-07  1.63E-04  0.00E+00  0.00E+00  0.00E+00  0.00E+00  8.75E-07  1.63E-04       NaN  0.00000
   1366.    7.321  1.14E-06  2.12E-04  0.00E+00  0.00E+00  0.00E+00  0.00E+00  1.14E-06  2.12E-04       NaN  0.00000
   1368.    7.310  9.96E-07  1.86E-04  0.00E+00  0.00E+00  0.00E+00  0.00E+00  9.96E-07  1.86E-04       NaN  0.00000
   1370.    7.299  9.52E-07  1.79E-04  0.00E+00  0.00E+00  0.00E+00  0.00E+00  9.52E-07  1.79E-04       NaN  0.00000
   1372.    7.289  8.86E-07  1.67E-04  0.00E+00  0.00E+00  0.00E+00  0.00E+00  8.86E-07  1.67E-04       NaN  0.00000
   1374.    7.278  6.56E-07  1.24E-04  0.00E+00  0.00E+00  0.00E+00  0.00E+00  6.56E-07  1.24E-04       NaN  0.00000
   1376.    7.267  7.53E-07  1.42E-04  0.00E+00  0.00E+00  0.00E+00  0.00E+00  7.53E-07  1.42E-04       NaN  0.00000
   1378.    7.257  9.05E-07  1.72E-04  0.00E+00  0.00E+00  0.00E+00  0.00E+00  9.05E-07  1.72E-04       NaN  0.00000
   1380.    7.246  9.78E-07  1.86E-04  0.00E+00  0.00E+00  0.00E+00  0.00E+00  9.78E-07  1.86E-04       NaN  0.00000
   1382.    7.236  1.08E-06  2.05E-04  0.00E+00  0.00E+00  0.00E+00  0.00E+00  1.08E-06  2.05E-04       NaN  0.00000
   1384.    7.225  1.02E-06  1.95E-04  0.00E+00  0.00E+00  0.00E+00  0.00E+00  1.02E-06  1.95E-04       NaN  0.00000
   1386.    7.215  7.68E-07  1.47E-04  0.00E+00  0.00E+00  0.00E+00  0.00E+00  7.68E-07  1.47E-04       NaN  0.00000
   1388.    7.205  6.57E-07  1.27E-04  0.00E+00  0.00E+00  0.00E+00  0.00E+00  6.57E-07  1.27E-04       NaN  0.00000
   1390.    7.194  8.15E-07  1.57E-04  0.00E+00  0.00E+00  0.00E+00  0.00E+00  8.15E-07  1.57E-04       NaN  0.00000
   1392.    7.184  7.91E-07  1.53E-04  0.00E+00  0.00E+00  0.00E+00  0.00E+00  7.91E-07  1.53E-04       NaN  0.00000
   1394.    7.174  5.86E-07  1.14E-04  0.00E+00  0.00E+00  0.00E+00  0.00E+00  5.86E-07  1.14E-04       NaN  0.00000
   1396.    7.163  5.77E-07  1.13E-04  0.00E+00  0.00E+00  0.00E+00  0.00E+00  5.77E-07  1.13E-04       NaN  0.00000
   1398.    7.153  5.84E-07  1.14E-04  0.00E+00  0.00E+00  0.00E+00  0.00E+00  5.84E-07  1.14E-04       NaN  0.00000
   1400.    7.143  6.25E-07  1.22E-04  0.00E+00  0.00E+00  0.00E+00  0.00E+00  6.25E-07  1.22E-04       NaN  0.00000
  iv         1405
1                                             RADIANCE(WATTS/CM2-STER-XXX)
0  FREQ   WAVLEN    PATH THERMAL      SURFACE EMISSION    SURFACE REFLECTED     TOTAL RADIANCE   INTEGRAL    TOTAL
  (CM-1) (MICRN)    (CM-1)   (MICRN)    (CM-1)   (MICRN)    (CM-1)   (MICRN)    (CM-1)   (MICRN)    (CM-1)   TRANS

   1402.    7.133  7.90E-07  1.55E-04  0.00E+00  0.00E+00  0.00E+00  0.00E+00  7.90E-07  1.55E-04       NaN  0.00000
   1404.    7.123  6.86E-07  1.35E-04  0.00E+00  0.00E+00  0.00E+00  0.00E+00  6.86E-07  1.35E-04       NaN  0.00000
   1406.    7.112  7.55E-07  1.49E-04  0.00E+00  0.00E+00  0.00E+00  0.00E+00  7.55E-07  1.49E-04       NaN  0.00000
   1408.    7.102  8.98E-07  1.78E-04  0.00E+00  0.00E+00  0.00E+00  0.00E+00  8.98E-07  1.78E-04       NaN  0.00000
   1410.    7.092  8.14E-07  1.62E-04  0.00E+00  0.00E+00  0.00E+00  0.00E+00  8.14E-07  1.62E-04       NaN  0.00000
   1412.    7.082  7.73E-07  1.54E-04  0.00E+00  0.00E+00  0.00E+00  0.00E+00  7.73E-07  1.54E-04       NaN  0.00000
   1414.    7.072  7.88E-07  1.58E-04  0.00E+00  0.00E+00  0.00E+00  0.00E+00  7.88E-07  1.58E-04       NaN  0.00000
   1416.    7.062  6.38E-07  1.28E-04  0.00E+00  0.00E+00  0.00E+00  0.00E+00  6.38E-07  1.28E-04       NaN  0.00000
   1418.    7.052  4.68E-07  9.40E-05  0.00E+00  0.00E+00  0.00E+00  0.00E+00  4.68E-07  9.40E-05       NaN  0.00000
   1420.    7.042  4.48E-07  9.04E-05  0.00E+00  0.00E+00  0.00E+00  0.00E+00  4.48E-07  9.04E-05       NaN  0.00000
   1422.    7.032  5.58E-07  1.13E-04  0.00E+00  0.00E+00  0.00E+00  0.00E+00  5.58E-07  1.13E-04       NaN  0.00000
   1424.    7.022  5.53E-07  1.12E-04  0.00E+00  0.00E+00  0.00E+00  0.00E+00  5.53E-07  1.12E-04       NaN  0.00000
   1426.    7.013  6.69E-07  1.36E-04  0.00E+00  0.00E+00  0.00E+00  0.00E+00  6.69E-07  1.36E-04       NaN  0.00000
   1428.    7.003  6.19E-07  1.26E-04  0.00E+00  0.00E+00  0.00E+00  0.00E+00  6.19E-07  1.26E-04       NaN  0.00000
   1430.    6.993  5.19E-07  1.06E-04  0.00E+00  0.00E+00  0.00E+00  0.00E+00  5.19E-07  1.06E-04       NaN  0.00000
   1432.    6.983  5.80E-07  1.19E-04  0.00E+00  0.00E+00  0.00E+00  0.00E+00  5.80E-07  1.19E-04       NaN  0.00000
   1434.    6.974  5.43E-07  1.12E-04  0.00E+00  0.00E+00  0.00E+00  0.00E+00  5.43E-07  1.12E-04       NaN  0.00000
   1436.    6.964  4.14E-07  8.54E-05  0.00E+00  0.00E+00  0.00E+00  0.00E+00  4.14E-07  8.54E-05       NaN  0.00000
   1438.    6.954  4.84E-07  1.00E-04  0.00E+00  0.00E+00  0.00E+00  0.00E+00  4.84E-07  1.00E-04       NaN  0.00000
   1440.    6.944  6.63E-07  1.37E-04  0.00E+00  0.00E+00  0.00E+00  0.00E+00  6.63E-07  1.37E-04       NaN  0.00000
   1442.    6.935  7.22E-07  1.50E-04  0.00E+00  0.00E+00  0.00E+00  0.00E+00  7.22E-07  1.50E-04       NaN  0.00000
   1444.    6.925  6.97E-07  1.45E-04  0.00E+00  0.00E+00  0.00E+00  0.00E+00  6.97E-07  1.45E-04       NaN  0.00000
   1446.    6.916  5.53E-07  1.16E-04  0.00E+00  0.00E+00  0.00E+00  0.00E+00  5.53E-07  1.16E-04       NaN  0.00000
   1448.    6.906  4.79E-07  1.00E-04  0.00E+00  0.00E+00  0.00E+00  0.00E+00  4.79E-07  1.00E-04       NaN  0.00000
   1450.    6.897  5.57E-07  1.17E-04  0.00E+00  0.00E+00  0.00E+00  0.00E+00  5.57E-07  1.17E-04       NaN  0.00000
   1452.    6.887  5.24E-07  1.10E-04  0.00E+00  0.00E+00  0.00E+00  0.00E+00  5.24E-07  1.10E-04       NaN  0.00000
   1454.    6.878  4.42E-07  9.34E-05  0.00E+00  0.00E+00  0.00E+00  0.00E+00  4.42E-07  9.34E-05       NaN  0.00000
   1456.    6.868  3.16E-07  6.69E-05  0.00E+00  0.00E+00  0.00E+00  0.00E+00  3.16E-07  6.69E-05       NaN  0.00000
   1458.    6.859  2.93E-07  6.22E-05  0.00E+00  0.00E+00  0.00E+00  0.00E+00  2.93E-07  6.22E-05       NaN  0.00000
   1460.    6.849  4.10E-07  8.75E-05  0.00E+00  0.00E+00  0.00E+00  0.00E+00  4.10E-07  8.75E-05       NaN  0.00000
   1462.    6.840  4.84E-07  1.03E-04  0.00E+00  0.00E+00  0.00E+00  0.00E+00  4.84E-07  1.03E-04       NaN  0.00000
   1464.    6.831  3.80E-07  8.14E-05  0.00E+00  0.00E+00  0.00E+00  0.00E+00  3.80E-07  8.14E-05       NaN  0.00000
   1466.    6.821  4.02E-07  8.64E-05  0.00E+00  0.00E+00  0.00E+00  0.00E+00  4.02E-07  8.64E-05       NaN  0.00000
   1468.    6.812  4.96E-07  1.07E-04  0.00E+00  0.00E+00  0.00E+00  0.00E+00  4.96E-07  1.07E-04       NaN  0.00000
   1470.    6.803  4.42E-07  9.55E-05  0.00E+00  0.00E+00  0.00E+00  0.00E+00  4.42E-07  9.55E-05       NaN  0.00000
   1472.    6.793  3.09E-07  6.70E-05  0.00E+00  0.00E+00  0.00E+00  0.00E+00  3.09E-07  6.70E-05       NaN  0.00000
   1474.    6.784  3.00E-07  6.51E-05  0.00E+00  0.00E+00  0.00E+00  0.00E+00  3.00E-07  6.51E-05       NaN  0.00000
   1476.    6.775  3.58E-07  7.80E-05  0.00E+00  0.00E+00  0.00E+00  0.00E+00  3.58E-07  7.80E-05       NaN  0.00000
   1478.    6.766  4.72E-07  1.03E-04  0.00E+00  0.00E+00  0.00E+00  0.00E+00  4.72E-07  1.03E-04       NaN  0.00000
   1480.    6.757  4.88E-07  1.07E-04  0.00E+00  0.00E+00  0.00E+00  0.00E+00  4.88E-07  1.07E-04       NaN  0.00000
   1482.    6.748  4.67E-07  1.03E-04  0.00E+00  0.00E+00  0.00E+00  0.00E+00  4.67E-07  1.03E-04       NaN  0.00000
   1484.    6.739  4.90E-07  1.08E-04  0.00E+00  0.00E+00  0.00E+00  0.00E+00  4.90E-07  1.08E-04       NaN  0.00000
   1486.    6.729  3.86E-07  8.52E-05  0.00E+00  0.00E+00  0.00E+00  0.00E+00  3.86E-07  8.52E-05       NaN  0.00000
   1488.    6.720  3.02E-07  6.69E-05  0.00E+00  0.00E+00  0.00E+00  0.00E+00  3.02E-07  6.69E-05       NaN  0.00000
   1490.    6.711  2.92E-07  6.48E-05  0.00E+00  0.00E+00  0.00E+00  0.00E+00  2.92E-07  6.48E-05       NaN  0.00000
   1492.    6.702  3.68E-07  8.20E-05  0.00E+00  0.00E+00  0.00E+00  0.00E+00  3.68E-07  8.20E-05       NaN  0.00000
   1494.    6.693  3.92E-07  8.74E-05  0.00E+00  0.00E+00  0.00E+00  0.00E+00  3.92E-07  8.74E-05       NaN  0.00000
   1496.    6.684  2.92E-07  6.53E-05  0.00E+00  0.00E+00  0.00E+00  0.00E+00  2.92E-07  6.53E-05       NaN  0.00000
   1498.    6.676  2.61E-07  5.86E-05  0.00E+00  0.00E+00  0.00E+00  0.00E+00  2.61E-07  5.86E-05       NaN  0.00000
   1500.    6.667  3.08E-07  6.94E-05  0.00E+00  0.00E+00  0.00E+00  0.00E+00  3.08E-07  6.94E-05       NaN  0.00000
  iv         1505
1                                             RADIANCE(WATTS/CM2-STER-XXX)
0  FREQ   WAVLEN    PATH THERMAL      SURFACE EMISSION    SURFACE REFLECTED     TOTAL RADIANCE   INTEGRAL    TOTAL
  (CM-1) (MICRN)    (CM-1)   (MICRN)    (CM-1)   (MICRN)    (CM-1)   (MICRN)    (CM-1)   (MICRN)    (CM-1)   TRANS

   1502.    6.658  3.49E-07  7.87E-05  0.00E+00  0.00E+00  0.00E+00  0.00E+00  3.49E-07  7.87E-05       NaN  0.00000
   1504.    6.649  2.97E-07  6.72E-05  0.00E+00  0.00E+00  0.00E+00  0.00E+00  2.97E-07  6.72E-05       NaN  0.00000
   1506.    6.640  2.17E-07  4.92E-05  0.00E+00  0.00E+00  0.00E+00  0.00E+00  2.17E-07  4.92E-05       NaN  0.00000
   1508.    6.631  2.19E-07  4.98E-05  0.00E+00  0.00E+00  0.00E+00  0.00E+00  2.19E-07  4.98E-05       NaN  0.00000
   1510.    6.623  2.62E-07  5.97E-05  0.00E+00  0.00E+00  0.00E+00  0.00E+00  2.62E-07  5.97E-05       NaN  0.00000
   1512.    6.614  2.98E-07  6.81E-05  0.00E+00  0.00E+00  0.00E+00  0.00E+00  2.98E-07  6.81E-05       NaN  0.00000
   1514.    6.605  3.11E-07  7.14E-05  0.00E+00  0.00E+00  0.00E+00  0.00E+00  3.11E-07  7.14E-05       NaN  0.00000
   1516.    6.596  2.59E-07  5.94E-05  0.00E+00  0.00E+00  0.00E+00  0.00E+00  2.59E-07  5.94E-05       NaN  0.00000
   1518.    6.588  2.45E-07  5.65E-05  0.00E+00  0.00E+00  0.00E+00  0.00E+00  2.45E-07  5.65E-05       NaN  0.00000
   1520.    6.579  2.31E-07  5.33E-05  0.00E+00  0.00E+00  0.00E+00  0.00E+00  2.31E-07  5.33E-05       NaN  0.00000
   1522.    6.570  2.03E-07  4.70E-05  0.00E+00  0.00E+00  0.00E+00  0.00E+00  2.03E-07  4.70E-05       NaN  0.00000
   1524.    6.562  2.27E-07  5.28E-05  0.00E+00  0.00E+00  0.00E+00  0.00E+00  2.27E-07  5.28E-05       NaN  0.00000
   1526.    6.553  2.51E-07  5.84E-05  0.00E+00  0.00E+00  0.00E+00  0.00E+00  2.51E-07  5.84E-05       NaN  0.00000
   1528.    6.545  2.74E-07  6.39E-05  0.00E+00  0.00E+00  0.00E+00  0.00E+00  2.74E-07  6.39E-05       NaN  0.00000
   1530.    6.536  3.04E-07  7.12E-05  0.00E+00  0.00E+00  0.00E+00  0.00E+00  3.04E-07  7.12E-05       NaN  0.00000
   1532.    6.527  2.60E-07  6.11E-05  0.00E+00  0.00E+00  0.00E+00  0.00E+00  2.60E-07  6.11E-05       NaN  0.00000
   1534.    6.519  2.25E-07  5.29E-05  0.00E+00  0.00E+00  0.00E+00  0.00E+00  2.25E-07  5.29E-05       NaN  0.00000
   1536.    6.510  2.61E-07  6.16E-05  0.00E+00  0.00E+00  0.00E+00  0.00E+00  2.61E-07  6.16E-05       NaN  0.00000
   1538.    6.502  2.15E-07  5.08E-05  0.00E+00  0.00E+00  0.00E+00  0.00E+00  2.15E-07  5.08E-05       NaN  0.00000
   1540.    6.494  1.68E-07  3.99E-05  0.00E+00  0.00E+00  0.00E+00  0.00E+00  1.68E-07  3.99E-05       NaN  0.00000
   1542.    6.485  1.77E-07  4.20E-05  0.00E+00  0.00E+00  0.00E+00  0.00E+00  1.77E-07  4.20E-05       NaN  0.00000
   1544.    6.477  2.09E-07  4.99E-05  0.00E+00  0.00E+00  0.00E+00  0.00E+00  2.09E-07  4.99E-05       NaN  0.00000
   1546.    6.468  2.56E-07  6.11E-05  0.00E+00  0.00E+00  0.00E+00  0.00E+00  2.56E-07  6.11E-05       NaN  0.00000
   1548.    6.460  2.95E-07  7.08E-05  0.00E+00  0.00E+00  0.00E+00  0.00E+00  2.95E-07  7.08E-05       NaN  0.00000
   1550.    6.452  2.69E-07  6.46E-05  0.00E+00  0.00E+00  0.00E+00  0.00E+00  2.69E-07  6.46E-05       NaN  0.00000
   1552.    6.443  2.59E-07  6.25E-05  0.00E+00  0.00E+00  0.00E+00  0.00E+00  2.59E-07  6.25E-05       NaN  0.00000
   1554.    6.435  2.19E-07  5.28E-05  0.00E+00  0.00E+00  0.00E+00  0.00E+00  2.19E-07  5.28E-05       NaN  0.00000
   1556.    6.427  1.91E-07  4.62E-05  0.00E+00  0.00E+00  0.00E+00  0.00E+00  1.91E-07  4.62E-05       NaN  0.00000
   1558.    6.418  1.60E-07  3.89E-05  0.00E+00  0.00E+00  0.00E+00  0.00E+00  1.60E-07  3.89E-05       NaN  0.00000
   1560.    6.410  1.66E-07  4.05E-05  0.00E+00  0.00E+00  0.00E+00  0.00E+00  1.66E-07  4.05E-05       NaN  0.00000
   1562.    6.402  2.19E-07  5.34E-05  0.00E+00  0.00E+00  0.00E+00  0.00E+00  2.19E-07  5.34E-05       NaN  0.00000
   1564.    6.394  2.31E-07  5.66E-05  0.00E+00  0.00E+00  0.00E+00  0.00E+00  2.31E-07  5.66E-05       NaN  0.00000
   1566.    6.386  2.46E-07  6.04E-05  0.00E+00  0.00E+00  0.00E+00  0.00E+00  2.46E-07  6.04E-05       NaN  0.00000
   1568.    6.378  2.26E-07  5.56E-05  0.00E+00  0.00E+00  0.00E+00  0.00E+00  2.26E-07  5.56E-05       NaN  0.00000
   1570.    6.369  1.97E-07  4.86E-05  0.00E+00  0.00E+00  0.00E+00  0.00E+00  1.97E-07  4.86E-05       NaN  0.00000
   1572.    6.361  2.53E-07  6.24E-05  0.00E+00  0.00E+00  0.00E+00  0.00E+00  2.53E-07  6.24E-05       NaN  0.00000
   1574.    6.353  2.34E-07  5.79E-05  0.00E+00  0.00E+00  0.00E+00  0.00E+00  2.34E-07  5.79E-05       NaN  0.00000
   1576.    6.345  1.70E-07  4.21E-05  0.00E+00  0.00E+00  0.00E+00  0.00E+00  1.70E-07  4.21E-05       NaN  0.00000
   1578.    6.337  2.07E-07  5.17E-05  0.00E+00  0.00E+00  0.00E+00  0.00E+00  2.07E-07  5.17E-05       NaN  0.00000
   1580.    6.329  2.98E-07  7.44E-05  0.00E+00  0.00E+00  0.00E+00  0.00E+00  2.98E-07  7.44E-05       NaN  0.00000
   1582.    6.321  3.35E-07  8.40E-05  0.00E+00  0.00E+00  0.00E+00  0.00E+00  3.35E-07  8.40E-05       NaN  0.00000
   1584.    6.313  3.61E-07  9.05E-05  0.00E+00  0.00E+00  0.00E+00  0.00E+00  3.61E-07  9.05E-05       NaN  0.00000
   1586.    6.305  3.74E-07  9.42E-05  0.00E+00  0.00E+00  0.00E+00  0.00E+00  3.74E-07  9.42E-05       NaN  0.00000
   1588.    6.297  3.63E-07  9.16E-05  0.00E+00  0.00E+00  0.00E+00  0.00E+00  3.63E-07  9.16E-05       NaN  0.00000
   1590.    6.289  3.24E-07  8.20E-05  0.00E+00  0.00E+00  0.00E+00  0.00E+00  3.24E-07  8.20E-05       NaN  0.00000
   1592.    6.281  3.09E-07  7.82E-05  0.00E+00  0.00E+00  0.00E+00  0.00E+00  3.09E-07  7.82E-05       NaN  0.00000
   1594.    6.274  2.83E-07  7.20E-05  0.00E+00  0.00E+00  0.00E+00  0.00E+00  2.83E-07  7.20E-05       NaN  0.00000
   1596.    6.266  2.95E-07  7.50E-05  0.00E+00  0.00E+00  0.00E+00  0.00E+00  2.95E-07  7.50E-05       NaN  0.00000
   1598.    6.258  3.53E-07  9.02E-05  0.00E+00  0.00E+00  0.00E+00  0.00E+00  3.53E-07  9.02E-05       NaN  0.00000
   1600.    6.250  3.36E-07  8.59E-05  0.00E+00  0.00E+00  0.00E+00  0.00E+00  3.36E-07  8.59E-05       NaN  0.00000
  iv         1605
1                                             RADIANCE(WATTS/CM2-STER-XXX)
0  FREQ   WAVLEN    PATH THERMAL      SURFACE EMISSION    SURFACE REFLECTED     TOTAL RADIANCE   INTEGRAL    TOTAL
  (CM-1) (MICRN)    (CM-1)   (MICRN)    (CM-1)   (MICRN)    (CM-1)   (MICRN)    (CM-1)   (MICRN)    (CM-1)   TRANS

   1602.    6.242  2.79E-07  7.16E-05  0.00E+00  0.00E+00  0.00E+00  0.00E+00  2.79E-07  7.16E-05       NaN  0.00000
   1604.    6.234  2.97E-07  7.64E-05  0.00E+00  0.00E+00  0.00E+00  0.00E+00  2.97E-07  7.64E-05       NaN  0.00000
   1606.    6.227  2.96E-07  7.65E-05  0.00E+00  0.00E+00  0.00E+00  0.00E+00  2.96E-07  7.65E-05       NaN  0.00000
   1608.    6.219  2.44E-07  6.30E-05  0.00E+00  0.00E+00  0.00E+00  0.00E+00  2.44E-07  6.30E-05       NaN  0.00000
   1610.    6.211  2.53E-07  6.56E-05  0.00E+00  0.00E+00  0.00E+00  0.00E+00  2.53E-07  6.56E-05       NaN  0.00000
   1612.    6.203  2.79E-07  7.24E-05  0.00E+00  0.00E+00  0.00E+00  0.00E+00  2.79E-07  7.24E-05       NaN  0.00000
   1614.    6.196  2.30E-07  5.99E-05  0.00E+00  0.00E+00  0.00E+00  0.00E+00  2.30E-07  5.99E-05       NaN  0.00000
   1616.    6.188  1.51E-07  3.95E-05  0.00E+00  0.00E+00  0.00E+00  0.00E+00  1.51E-07  3.95E-05       NaN  0.00000
   1618.    6.180  1.67E-07  4.37E-05  0.00E+00  0.00E+00  0.00E+00  0.00E+00  1.67E-07  4.37E-05       NaN  0.00000
   1620.    6.173  2.18E-07  5.72E-05  0.00E+00  0.00E+00  0.00E+00  0.00E+00  2.18E-07  5.72E-05       NaN  0.00000
   1622.    6.165  1.88E-07  4.95E-05  0.00E+00  0.00E+00  0.00E+00  0.00E+00  1.88E-07  4.95E-05       NaN  0.00000
   1624.    6.158  1.62E-07  4.26E-05  0.00E+00  0.00E+00  0.00E+00  0.00E+00  1.62E-07  4.26E-05       NaN  0.00000
   1626.    6.150  1.82E-07  4.82E-05  0.00E+00  0.00E+00  0.00E+00  0.00E+00  1.82E-07  4.82E-05       NaN  0.00000
   1628.    6.143  1.80E-07  4.76E-05  0.00E+00  0.00E+00  0.00E+00  0.00E+00  1.80E-07  4.76E-05       NaN  0.00000
   1630.    6.135  2.27E-07  6.03E-05  0.00E+00  0.00E+00  0.00E+00  0.00E+00  2.27E-07  6.03E-05       NaN  0.00000
   1632.    6.127  2.23E-07  5.94E-05  0.00E+00  0.00E+00  0.00E+00  0.00E+00  2.23E-07  5.94E-05       NaN  0.00000
   1634.    6.120  1.54E-07  4.10E-05  0.00E+00  0.00E+00  0.00E+00  0.00E+00  1.54E-07  4.10E-05       NaN  0.00000
   1636.    6.112  1.21E-07  3.23E-05  0.00E+00  0.00E+00  0.00E+00  0.00E+00  1.21E-07  3.23E-05       NaN  0.00000
   1638.    6.105  1.52E-07  4.07E-05  0.00E+00  0.00E+00  0.00E+00  0.00E+00  1.52E-07  4.07E-05       NaN  0.00000
   1640.    6.098  1.92E-07  5.17E-05  0.00E+00  0.00E+00  0.00E+00  0.00E+00  1.92E-07  5.17E-05       NaN  0.00000
   1642.    6.090  2.05E-07  5.52E-05  0.00E+00  0.00E+00  0.00E+00  0.00E+00  2.05E-07  5.52E-05       NaN  0.00000
   1644.    6.083  1.71E-07  4.63E-05  0.00E+00  0.00E+00  0.00E+00  0.00E+00  1.71E-07  4.63E-05       NaN  0.00000
   1646.    6.075  1.21E-07  3.27E-05  0.00E+00  0.00E+00  0.00E+00  0.00E+00  1.21E-07  3.27E-05       NaN  0.00000
   1648.    6.068  1.24E-07  3.37E-05  0.00E+00  0.00E+00  0.00E+00  0.00E+00  1.24E-07  3.37E-05       NaN  0.00000
   1650.    6.061  1.38E-07  3.76E-05  0.00E+00  0.00E+00  0.00E+00  0.00E+00  1.38E-07  3.76E-05       NaN  0.00000
   1652.    6.053  1.15E-07  3.13E-05  0.00E+00  0.00E+00  0.00E+00  0.00E+00  1.15E-07  3.13E-05       NaN  0.00000
   1654.    6.046  1.03E-07  2.83E-05  0.00E+00  0.00E+00  0.00E+00  0.00E+00  1.03E-07  2.83E-05       NaN  0.00000
   1656.    6.039  1.48E-07  4.05E-05  0.00E+00  0.00E+00  0.00E+00  0.00E+00  1.48E-07  4.05E-05       NaN  0.00000
   1658.    6.031  1.97E-07  5.42E-05  0.00E+00  0.00E+00  0.00E+00  0.00E+00  1.97E-07  5.42E-05       NaN  0.00000
   1660.    6.024  1.93E-07  5.32E-05  0.00E+00  0.00E+00  0.00E+00  0.00E+00  1.93E-07  5.32E-05       NaN  0.00000
   1662.    6.017  1.44E-07  3.99E-05  0.00E+00  0.00E+00  0.00E+00  0.00E+00  1.44E-07  3.99E-05       NaN  0.00000
   1664.    6.010  1.61E-07  4.47E-05  0.00E+00  0.00E+00  0.00E+00  0.00E+00  1.61E-07  4.47E-05       NaN  0.00000
   1666.    6.002  1.89E-07  5.25E-05  0.00E+00  0.00E+00  0.00E+00  0.00E+00  1.89E-07  5.25E-05       NaN  0.00000
   1668.    5.995  1.42E-07  3.95E-05  0.00E+00  0.00E+00  0.00E+00  0.00E+00  1.42E-07  3.95E-05       NaN  0.00000
   1670.    5.988  1.10E-07  3.07E-05  0.00E+00  0.00E+00  0.00E+00  0.00E+00  1.10E-07  3.07E-05       NaN  0.00000
   1672.    5.981  1.31E-07  3.66E-05  0.00E+00  0.00E+00  0.00E+00  0.00E+00  1.31E-07  3.66E-05       NaN  0.00000
   1674.    5.974  1.36E-07  3.80E-05  0.00E+00  0.00E+00  0.00E+00  0.00E+00  1.36E-07  3.80E-05       NaN  0.00000
   1676.    5.967  1.27E-07  3.57E-05  0.00E+00  0.00E+00  0.00E+00  0.00E+00  1.27E-07  3.57E-05       NaN  0.00000
   1678.    5.959  1.56E-07  4.39E-05  0.00E+00  0.00E+00  0.00E+00  0.00E+00  1.56E-07  4.39E-05       NaN  0.00000
   1680.    5.952  1.48E-07  4.18E-05  0.00E+00  0.00E+00  0.00E+00  0.00E+00  1.48E-07  4.18E-05       NaN  0.00000
   1682.    5.945  1.26E-07  3.56E-05  0.00E+00  0.00E+00  0.00E+00  0.00E+00  1.26E-07  3.56E-05       NaN  0.00000
   1684.    5.938  9.53E-08  2.70E-05  0.00E+00  0.00E+00  0.00E+00  0.00E+00  9.53E-08  2.70E-05       NaN  0.00000
   1686.    5.931  1.16E-07  3.29E-05  0.00E+00  0.00E+00  0.00E+00  0.00E+00  1.16E-07  3.29E-05       NaN  0.00000
   1688.    5.924  1.38E-07  3.92E-05  0.00E+00  0.00E+00  0.00E+00  0.00E+00  1.38E-07  3.92E-05       NaN  0.00000
   1690.    5.917  1.43E-07  4.08E-05  0.00E+00  0.00E+00  0.00E+00  0.00E+00  1.43E-07  4.08E-05       NaN  0.00000
   1692.    5.910  1.54E-07  4.41E-05  0.00E+00  0.00E+00  0.00E+00  0.00E+00  1.54E-07  4.41E-05       NaN  0.00000
   1694.    5.903  1.26E-07  3.61E-05  0.00E+00  0.00E+00  0.00E+00  0.00E+00  1.26E-07  3.61E-05       NaN  0.00000
   1696.    5.896  9.75E-08  2.80E-05  0.00E+00  0.00E+00  0.00E+00  0.00E+00  9.75E-08  2.80E-05       NaN  0.00000
   1698.    5.889  9.61E-08  2.77E-05  0.00E+00  0.00E+00  0.00E+00  0.00E+00  9.61E-08  2.77E-05       NaN  0.00000
   1700.    5.882  8.86E-08  2.56E-05  0.00E+00  0.00E+00  0.00E+00  0.00E+00  8.86E-08  2.56E-05       NaN  0.00000
  iv         1705
1                                             RADIANCE(WATTS/CM2-STER-XXX)
0  FREQ   WAVLEN    PATH THERMAL      SURFACE EMISSION    SURFACE REFLECTED     TOTAL RADIANCE   INTEGRAL    TOTAL
  (CM-1) (MICRN)    (CM-1)   (MICRN)    (CM-1)   (MICRN)    (CM-1)   (MICRN)    (CM-1)   (MICRN)    (CM-1)   TRANS

   1702.    5.875  1.08E-07  3.12E-05  0.00E+00  0.00E+00  0.00E+00  0.00E+00  1.08E-07  3.12E-05       NaN  0.00000
   1704.    5.869  1.10E-07  3.20E-05  0.00E+00  0.00E+00  0.00E+00  0.00E+00  1.10E-07  3.20E-05       NaN  0.00000
   1706.    5.862  1.06E-07  3.09E-05  0.00E+00  0.00E+00  0.00E+00  0.00E+00  1.06E-07  3.09E-05       NaN  0.00000
   1708.    5.855  1.39E-07  4.05E-05  0.00E+00  0.00E+00  0.00E+00  0.00E+00  1.39E-07  4.05E-05       NaN  0.00000
   1710.    5.848  1.53E-07  4.46E-05  0.00E+00  0.00E+00  0.00E+00  0.00E+00  1.53E-07  4.46E-05       NaN  0.00000
   1712.    5.841  1.53E-07  4.49E-05  0.00E+00  0.00E+00  0.00E+00  0.00E+00  1.53E-07  4.49E-05       NaN  0.00000
   1714.    5.834  1.22E-07  3.59E-05  0.00E+00  0.00E+00  0.00E+00  0.00E+00  1.22E-07  3.59E-05       NaN  0.00000
   1716.    5.828  9.41E-08  2.77E-05  0.00E+00  0.00E+00  0.00E+00  0.00E+00  9.41E-08  2.77E-05       NaN  0.00000
   1718.    5.821  8.95E-08  2.64E-05  0.00E+00  0.00E+00  0.00E+00  0.00E+00  8.95E-08  2.64E-05       NaN  0.00000
   1720.    5.814  1.31E-07  3.87E-05  0.00E+00  0.00E+00  0.00E+00  0.00E+00  1.31E-07  3.87E-05       NaN  0.00000
   1722.    5.807  1.59E-07  4.72E-05  0.00E+00  0.00E+00  0.00E+00  0.00E+00  1.59E-07  4.72E-05       NaN  0.00000
   1724.    5.800  1.71E-07  5.09E-05  0.00E+00  0.00E+00  0.00E+00  0.00E+00  1.71E-07  5.09E-05       NaN  0.00000
   1726.    5.794  1.84E-07  5.49E-05  0.00E+00  0.00E+00  0.00E+00  0.00E+00  1.84E-07  5.49E-05       NaN  0.00000
   1728.    5.787  1.69E-07  5.04E-05  0.00E+00  0.00E+00  0.00E+00  0.00E+00  1.69E-07  5.04E-05       NaN  0.00000
   1730.    5.780  1.32E-07  3.96E-05  0.00E+00  0.00E+00  0.00E+00  0.00E+00  1.32E-07  3.96E-05       NaN  0.00000
   1732.    5.774  1.06E-07  3.18E-05  0.00E+00  0.00E+00  0.00E+00  0.00E+00  1.06E-07  3.18E-05       NaN  0.00000
   1734.    5.767  8.33E-08  2.51E-05  0.00E+00  0.00E+00  0.00E+00  0.00E+00  8.33E-08  2.51E-05       NaN  0.00000
   1736.    5.760  1.07E-07  3.23E-05  0.00E+00  0.00E+00  0.00E+00  0.00E+00  1.07E-07  3.23E-05       NaN  0.00000
   1738.    5.754  1.11E-07  3.35E-05  0.00E+00  0.00E+00  0.00E+00  0.00E+00  1.11E-07  3.35E-05       NaN  0.00000
   1740.    5.747  1.00E-07  3.04E-05  0.00E+00  0.00E+00  0.00E+00  0.00E+00  1.00E-07  3.04E-05       NaN  0.00000
   1742.    5.741  1.21E-07  3.67E-05  0.00E+00  0.00E+00  0.00E+00  0.00E+00  1.21E-07  3.67E-05       NaN  0.00000
   1744.    5.734  1.18E-07  3.60E-05  0.00E+00  0.00E+00  0.00E+00  0.00E+00  1.18E-07  3.60E-05       NaN  0.00000
   1746.    5.727  1.16E-07  3.54E-05  0.00E+00  0.00E+00  0.00E+00  0.00E+00  1.16E-07  3.54E-05       NaN  0.00000
   1748.    5.721  1.01E-07  3.07E-05  0.00E+00  0.00E+00  0.00E+00  0.00E+00  1.01E-07  3.07E-05       NaN  0.00000
   1750.    5.714  1.01E-07  3.09E-05  0.00E+00  0.00E+00  0.00E+00  0.00E+00  1.01E-07  3.09E-05       NaN  0.00000
   1752.    5.708  1.24E-07  3.80E-05  0.00E+00  0.00E+00  0.00E+00  0.00E+00  1.24E-07  3.80E-05       NaN  0.00000
   1754.    5.701  1.57E-07  4.84E-05  0.00E+00  0.00E+00  0.00E+00  0.00E+00  1.57E-07  4.84E-05       NaN  0.00000
   1756.    5.695  1.39E-07  4.29E-05  0.00E+00  0.00E+00  0.00E+00  0.00E+00  1.39E-07  4.29E-05       NaN  0.00000
   1758.    5.688  1.37E-07  4.22E-05  0.00E+00  0.00E+00  0.00E+00  0.00E+00  1.37E-07  4.22E-05       NaN  0.00000
   1760.    5.682  1.33E-07  4.11E-05  0.00E+00  0.00E+00  0.00E+00  0.00E+00  1.33E-07  4.11E-05       NaN  0.00000
   1762.    5.675  1.11E-07  3.44E-05  0.00E+00  0.00E+00  0.00E+00  0.00E+00  1.11E-07  3.44E-05       NaN  0.00000
   1764.    5.669  1.47E-07  4.57E-05  0.00E+00  0.00E+00  0.00E+00  0.00E+00  1.47E-07  4.57E-05       NaN  0.00000
   1766.    5.663  1.59E-07  4.97E-05  0.00E+00  0.00E+00  0.00E+00  0.00E+00  1.59E-07  4.97E-05       NaN  0.00000
   1768.    5.656  1.24E-07  3.87E-05  0.00E+00  0.00E+00  0.00E+00  0.00E+00  1.24E-07  3.87E-05       NaN  0.00000
   1770.    5.650  9.86E-08  3.09E-05  0.00E+00  0.00E+00  0.00E+00  0.00E+00  9.86E-08  3.09E-05       NaN  0.00000
   1772.    5.643  7.36E-08  2.31E-05  0.00E+00  0.00E+00  0.00E+00  0.00E+00  7.36E-08  2.31E-05       NaN  0.00000
   1774.    5.637  9.25E-08  2.91E-05  0.00E+00  0.00E+00  0.00E+00  0.00E+00  9.25E-08  2.91E-05       NaN  0.00000
   1776.    5.631  1.25E-07  3.93E-05  0.00E+00  0.00E+00  0.00E+00  0.00E+00  1.25E-07  3.93E-05       NaN  0.00000
   1778.    5.624  1.41E-07  4.46E-05  0.00E+00  0.00E+00  0.00E+00  0.00E+00  1.41E-07  4.46E-05       NaN  0.00000
   1780.    5.618  1.17E-07  3.72E-05  0.00E+00  0.00E+00  0.00E+00  0.00E+00  1.17E-07  3.72E-05       NaN  0.00000
   1782.    5.612  1.29E-07  4.09E-05  0.00E+00  0.00E+00  0.00E+00  0.00E+00  1.29E-07  4.09E-05       NaN  0.00000
   1784.    5.605  1.41E-07  4.48E-05  0.00E+00  0.00E+00  0.00E+00  0.00E+00  1.41E-07  4.48E-05       NaN  0.00000
   1786.    5.599  1.60E-07  5.11E-05  0.00E+00  0.00E+00  0.00E+00  0.00E+00  1.60E-07  5.11E-05       NaN  0.00000
   1788.    5.593  1.66E-07  5.32E-05  0.00E+00  0.00E+00  0.00E+00  0.00E+00  1.66E-07  5.32E-05       NaN  0.00000
   1790.    5.587  1.21E-07  3.86E-05  0.00E+00  0.00E+00  0.00E+00  0.00E+00  1.21E-07  3.86E-05       NaN  0.00000
   1792.    5.580  8.15E-08  2.62E-05  0.00E+00  0.00E+00  0.00E+00  0.00E+00  8.15E-08  2.62E-05       NaN  0.00000
   1794.    5.574  9.40E-08  3.03E-05  0.00E+00  0.00E+00  0.00E+00  0.00E+00  9.40E-08  3.03E-05       NaN  0.00000
   1796.    5.568  1.16E-07  3.75E-05  0.00E+00  0.00E+00  0.00E+00  0.00E+00  1.16E-07  3.75E-05       NaN  0.00000
   1798.    5.562  1.22E-07  3.93E-05  0.00E+00  0.00E+00  0.00E+00  0.00E+00  1.22E-07  3.93E-05       NaN  0.00000
   1800.    5.556  9.90E-08  3.21E-05  0.00E+00  0.00E+00  0.00E+00  0.00E+00  9.90E-08  3.21E-05       NaN  0.00000
  iv         1805
1                                             RADIANCE(WATTS/CM2-STER-XXX)
0  FREQ   WAVLEN    PATH THERMAL      SURFACE EMISSION    SURFACE REFLECTED     TOTAL RADIANCE   INTEGRAL    TOTAL
  (CM-1) (MICRN)    (CM-1)   (MICRN)    (CM-1)   (MICRN)    (CM-1)   (MICRN)    (CM-1)   (MICRN)    (CM-1)   TRANS

   1802.    5.549  1.22E-07  3.96E-05  0.00E+00  0.00E+00  0.00E+00  0.00E+00  1.22E-07  3.96E-05       NaN  0.00000
   1804.    5.543  1.61E-07  5.25E-05  0.00E+00  0.00E+00  0.00E+00  0.00E+00  1.61E-07  5.25E-05       NaN  0.00000
   1806.    5.537  1.68E-07  5.48E-05  0.00E+00  0.00E+00  0.00E+00  0.00E+00  1.68E-07  5.48E-05       NaN  0.00000
   1808.    5.531  1.52E-07  4.98E-05  0.00E+00  0.00E+00  0.00E+00  0.00E+00  1.52E-07  4.98E-05       NaN  0.00000
   1810.    5.525  1.18E-07  3.88E-05  0.00E+00  0.00E+00  0.00E+00  0.00E+00  1.18E-07  3.88E-05       NaN  0.00000
   1812.    5.519  1.29E-07  4.24E-05  0.00E+00  0.00E+00  0.00E+00  0.00E+00  1.29E-07  4.24E-05       NaN  0.00000
   1814.    5.513  1.89E-07  6.20E-05  0.00E+00  0.00E+00  0.00E+00  0.00E+00  1.89E-07  6.20E-05       NaN  0.00000
   1816.    5.507  1.93E-07  6.35E-05  0.00E+00  0.00E+00  0.00E+00  0.00E+00  1.93E-07  6.35E-05       NaN  0.00000
   1818.    5.501  1.97E-07  6.50E-05  0.00E+00  0.00E+00  0.00E+00  0.00E+00  1.97E-07  6.50E-05       NaN  0.00000
   1820.    5.495  2.00E-07  6.63E-05  0.00E+00  0.00E+00  0.00E+00  0.00E+00  2.00E-07  6.63E-05       NaN  0.00000
   1822.    5.488  1.62E-07  5.38E-05  0.00E+00  0.00E+00  0.00E+00  0.00E+00  1.62E-07  5.38E-05       NaN  0.00000
   1824.    5.482  1.16E-07  3.87E-05  0.00E+00  0.00E+00  0.00E+00  0.00E+00  1.16E-07  3.87E-05       NaN  0.00000
   1826.    5.476  1.03E-07  3.43E-05  0.00E+00  0.00E+00  0.00E+00  0.00E+00  1.03E-07  3.43E-05       NaN  0.00000
   1828.    5.470  1.02E-07  3.41E-05  0.00E+00  0.00E+00  0.00E+00  0.00E+00  1.02E-07  3.41E-05       NaN  0.00000
   1830.    5.464  7.80E-08  2.61E-05  0.00E+00  0.00E+00  0.00E+00  0.00E+00  7.80E-08  2.61E-05       NaN  0.00000
   1832.    5.459  1.18E-07  3.97E-05  0.00E+00  0.00E+00  0.00E+00  0.00E+00  1.18E-07  3.97E-05       NaN  0.00000
   1834.    5.453  1.53E-07  5.16E-05  0.00E+00  0.00E+00  0.00E+00  0.00E+00  1.53E-07  5.16E-05       NaN  0.00000
   1836.    5.447  1.36E-07  4.57E-05  0.00E+00  0.00E+00  0.00E+00  0.00E+00  1.36E-07  4.57E-05       NaN  0.00000
   1838.    5.441  1.35E-07  4.57E-05  0.00E+00  0.00E+00  0.00E+00  0.00E+00  1.35E-07  4.57E-05       NaN  0.00000
   1840.    5.435  1.56E-07  5.27E-05  0.00E+00  0.00E+00  0.00E+00  0.00E+00  1.56E-07  5.27E-05       NaN  0.00000
   1842.    5.429  1.17E-07  3.96E-05  0.00E+00  0.00E+00  0.00E+00  0.00E+00  1.17E-07  3.96E-05       NaN  0.00000
   1844.    5.423  7.23E-08  2.46E-05  0.00E+00  0.00E+00  0.00E+00  0.00E+00  7.23E-08  2.46E-05       NaN  0.00000
   1846.    5.417  8.66E-08  2.95E-05  0.00E+00  0.00E+00  0.00E+00  0.00E+00  8.66E-08  2.95E-05       NaN  0.00000
   1848.    5.411  1.21E-07  4.13E-05  0.00E+00  0.00E+00  0.00E+00  0.00E+00  1.21E-07  4.13E-05       NaN  0.00000
   1850.    5.405  1.69E-07  5.79E-05  0.00E+00  0.00E+00  0.00E+00  0.00E+00  1.69E-07  5.79E-05       NaN  0.00000
   1852.    5.400  1.88E-07  6.45E-05  0.00E+00  0.00E+00  0.00E+00  0.00E+00  1.88E-07  6.45E-05       NaN  0.00000
   1854.    5.394  2.01E-07  6.92E-05  0.00E+00  0.00E+00  0.00E+00  0.00E+00  2.01E-07  6.92E-05       NaN  0.00000
   1856.    5.388  2.01E-07  6.94E-05  0.00E+00  0.00E+00  0.00E+00  0.00E+00  2.01E-07  6.94E-05       NaN  0.00000
   1858.    5.382  1.72E-07  5.93E-05  0.00E+00  0.00E+00  0.00E+00  0.00E+00  1.72E-07  5.93E-05       NaN  0.00000
   1860.    5.376  1.62E-07  5.62E-05  0.00E+00  0.00E+00  0.00E+00  0.00E+00  1.62E-07  5.62E-05       NaN  0.00000
   1862.    5.371  1.77E-07  6.14E-05  0.00E+00  0.00E+00  0.00E+00  0.00E+00  1.77E-07  6.14E-05       NaN  0.00000
   1864.    5.365  1.59E-07  5.51E-05  0.00E+00  0.00E+00  0.00E+00  0.00E+00  1.59E-07  5.51E-05       NaN  0.00000
   1866.    5.359  1.02E-07  3.56E-05  0.00E+00  0.00E+00  0.00E+00  0.00E+00  1.02E-07  3.56E-05       NaN  0.00000
   1868.    5.353  6.49E-08  2.26E-05  0.00E+00  0.00E+00  0.00E+00  0.00E+00  6.49E-08  2.26E-05       NaN  0.00000
   1870.    5.348  8.23E-08  2.88E-05  0.00E+00  0.00E+00  0.00E+00  0.00E+00  8.23E-08  2.88E-05       NaN  0.00000
   1872.    5.342  1.48E-07  5.18E-05  0.00E+00  0.00E+00  0.00E+00  0.00E+00  1.48E-07  5.18E-05       NaN  0.00000
   1874.    5.336  1.98E-07  6.96E-05  0.00E+00  0.00E+00  0.00E+00  0.00E+00  1.98E-07  6.96E-05       NaN  0.00000
   1876.    5.330  2.09E-07  7.35E-05  0.00E+00  0.00E+00  0.00E+00  0.00E+00  2.09E-07  7.35E-05       NaN  0.00000
   1878.    5.325  2.06E-07  7.26E-05  0.00E+00  0.00E+00  0.00E+00  0.00E+00  2.06E-07  7.26E-05       NaN  0.00000
   1880.    5.319  2.11E-07  7.47E-05  0.00E+00  0.00E+00  0.00E+00  0.00E+00  2.11E-07  7.47E-05       NaN  0.00000
   1882.    5.313  2.16E-07  7.64E-05  0.00E+00  0.00E+00  0.00E+00  0.00E+00  2.16E-07  7.64E-05       NaN  0.00000
   1884.    5.308  1.62E-07  5.76E-05  0.00E+00  0.00E+00  0.00E+00  0.00E+00  1.62E-07  5.76E-05       NaN  0.00000
   1886.    5.302  1.51E-07  5.36E-05  0.00E+00  0.00E+00  0.00E+00  0.00E+00  1.51E-07  5.36E-05       NaN  0.00000
   1888.    5.297  1.33E-07  4.73E-05  0.00E+00  0.00E+00  0.00E+00  0.00E+00  1.33E-07  4.73E-05       NaN  0.00000
   1890.    5.291  9.80E-08  3.50E-05  0.00E+00  0.00E+00  0.00E+00  0.00E+00  9.80E-08  3.50E-05       NaN  0.00000
   1892.    5.285  1.39E-07  4.98E-05  0.00E+00  0.00E+00  0.00E+00  0.00E+00  1.39E-07  4.98E-05       NaN  0.00000
   1894.    5.280  1.29E-07  4.61E-05  0.00E+00  0.00E+00  0.00E+00  0.00E+00  1.29E-07  4.61E-05       NaN  0.00000
   1896.    5.274  1.29E-07  4.65E-05  0.00E+00  0.00E+00  0.00E+00  0.00E+00  1.29E-07  4.65E-05       NaN  0.00000
   1898.    5.269  1.94E-07  7.00E-05  0.00E+00  0.00E+00  0.00E+00  0.00E+00  1.94E-07  7.00E-05       NaN  0.00000
   1900.    5.263  2.23E-07  8.05E-05  0.00E+00  0.00E+00  0.00E+00  0.00E+00  2.23E-07  8.05E-05       NaN  0.00000
  iv         1905
1                                             RADIANCE(WATTS/CM2-STER-XXX)
0  FREQ   WAVLEN    PATH THERMAL      SURFACE EMISSION    SURFACE REFLECTED     TOTAL RADIANCE   INTEGRAL    TOTAL
  (CM-1) (MICRN)    (CM-1)   (MICRN)    (CM-1)   (MICRN)    (CM-1)   (MICRN)    (CM-1)   (MICRN)    (CM-1)   TRANS

   1902.    5.258  1.95E-07  7.07E-05  0.00E+00  0.00E+00  0.00E+00  0.00E+00  1.95E-07  7.07E-05       NaN  0.00000
   1904.    5.252  1.56E-07  5.65E-05  0.00E+00  0.00E+00  0.00E+00  0.00E+00  1.56E-07  5.65E-05       NaN  0.00000
   1906.    5.247  1.46E-07  5.30E-05  0.00E+00  0.00E+00  0.00E+00  0.00E+00  1.46E-07  5.30E-05       NaN  0.00000
   1908.    5.241  1.05E-07  3.84E-05  0.00E+00  0.00E+00  0.00E+00  0.00E+00  1.05E-07  3.84E-05       NaN  0.00000
   1910.    5.236  1.07E-07  3.91E-05  0.00E+00  0.00E+00  0.00E+00  0.00E+00  1.07E-07  3.91E-05       NaN  0.00000
   1912.    5.230  1.61E-07  5.90E-05  0.00E+00  0.00E+00  0.00E+00  0.00E+00  1.61E-07  5.90E-05       NaN  0.00000
   1914.    5.225  1.74E-07  6.38E-05  0.00E+00  0.00E+00  0.00E+00  0.00E+00  1.74E-07  6.38E-05       NaN  0.00000
   1916.    5.219  1.36E-07  4.99E-05  0.00E+00  0.00E+00  0.00E+00  0.00E+00  1.36E-07  4.99E-05       NaN  0.00000
   1918.    5.214  8.46E-08  3.11E-05  0.00E+00  0.00E+00  0.00E+00  0.00E+00  8.46E-08  3.11E-05       NaN  0.00000
   1920.    5.208  9.86E-08  3.64E-05  0.00E+00  0.00E+00  0.00E+00  0.00E+00  9.86E-08  3.64E-05       NaN  0.00000
   1922.    5.203  9.19E-08  3.39E-05  0.00E+00  0.00E+00  0.00E+00  0.00E+00  9.19E-08  3.39E-05       NaN  0.00000
   1924.    5.198  1.07E-07  3.97E-05  0.00E+00  0.00E+00  0.00E+00  0.00E+00  1.07E-07  3.97E-05       NaN  0.00000
   1926.    5.192  1.74E-07  6.46E-05  0.00E+00  0.00E+00  0.00E+00  0.00E+00  1.74E-07  6.46E-05       NaN  0.00000
   1928.    5.187  2.13E-07  7.91E-05  0.00E+00  0.00E+00  0.00E+00  0.00E+00  2.13E-07  7.91E-05       NaN  0.00000
   1930.    5.181  2.26E-07  8.41E-05  0.00E+00  0.00E+00  0.00E+00  0.00E+00  2.26E-07  8.41E-05       NaN  0.00000
   1932.    5.176  1.88E-07  7.01E-05  0.00E+00  0.00E+00  0.00E+00  0.00E+00  1.88E-07  7.01E-05       NaN  0.00000
   1934.    5.171  1.85E-07  6.94E-05  0.00E+00  0.00E+00  0.00E+00  0.00E+00  1.85E-07  6.94E-05       NaN  0.00000
   1936.    5.165  2.13E-07  8.00E-05  0.00E+00  0.00E+00  0.00E+00  0.00E+00  2.13E-07  8.00E-05       NaN  0.00000
   1938.    5.160  1.97E-07  7.40E-05  0.00E+00  0.00E+00  0.00E+00  0.00E+00  1.97E-07  7.40E-05       NaN  0.00000
   1940.    5.155  1.58E-07  5.94E-05  0.00E+00  0.00E+00  0.00E+00  0.00E+00  1.58E-07  5.94E-05       NaN  0.00000
   1942.    5.149  9.41E-08  3.55E-05  0.00E+00  0.00E+00  0.00E+00  0.00E+00  9.41E-08  3.55E-05       NaN  0.00000
   1944.    5.144  8.01E-08  3.03E-05  0.00E+00  0.00E+00  0.00E+00  0.00E+00  8.01E-08  3.03E-05       NaN  0.00000
   1946.    5.139  1.01E-07  3.84E-05  0.00E+00  0.00E+00  0.00E+00  0.00E+00  1.01E-07  3.84E-05       NaN  0.00000
   1948.    5.133  1.58E-07  6.01E-05  0.00E+00  0.00E+00  0.00E+00  0.00E+00  1.58E-07  6.01E-05       NaN  0.00000
   1950.    5.128  1.96E-07  7.46E-05  5.44E-41  2.07E-38  0.00E+00  0.00E+00  1.96E-07  7.46E-05       NaN  0.00000
   1952.    5.123  2.10E-07  8.00E-05  1.44E-40  5.50E-38  0.00E+00  0.00E+00  2.10E-07  8.00E-05       NaN  0.00000
   1954.    5.118  1.64E-07  6.25E-05  4.89E-40  1.87E-37  0.00E+00  0.00E+00  1.64E-07  6.25E-05       NaN  0.00000
   1956.    5.112  1.46E-07  5.60E-05  1.66E-39  6.35E-37  0.00E+00  0.00E+00  1.46E-07  5.60E-05       NaN  0.00000
   1958.    5.107  1.94E-07  7.44E-05  1.63E-37  6.24E-35  0.00E+00  0.00E+00  1.94E-07  7.44E-05       NaN  0.00000
   1960.    5.102  1.83E-07  7.05E-05  4.40E-37  1.69E-34  0.00E+00  0.00E+00  1.83E-07  7.05E-05       NaN  0.00000
   1962.    5.097  1.72E-07  6.61E-05  2.79E-37  1.08E-34  0.00E+00  0.00E+00  1.72E-07  6.61E-05       NaN  0.00000
   1964.    5.092  1.81E-07  6.98E-05  1.91E-40  7.37E-38  0.00E+00  0.00E+00  1.81E-07  6.98E-05       NaN  0.00000
   1966.    5.086  1.12E-07  4.31E-05  7.29E-44  2.82E-41  0.00E+00  0.00E+00  1.12E-07  4.31E-05       NaN  0.00000
   1968.    5.081  1.15E-07  4.46E-05  1.37E-41  5.30E-39  0.00E+00  0.00E+00  1.15E-07  4.46E-05       NaN  0.00000
   1970.    5.076  1.94E-07  7.53E-05  6.75E-32  2.62E-29  0.00E+00  0.00E+00  1.94E-07  7.53E-05       NaN  0.00000
   1972.    5.071  2.38E-07  9.26E-05  7.10E-30  2.76E-27  0.00E+00  0.00E+00  2.38E-07  9.26E-05       NaN  0.00000
   1974.    5.066  2.37E-07  9.25E-05  2.02E-29  7.88E-27  0.00E+00  0.00E+00  2.37E-07  9.25E-05       NaN  0.00000
   1976.    5.061  2.09E-07  8.14E-05  1.55E-28  6.06E-26  0.00E+00  0.00E+00  2.09E-07  8.14E-05       NaN  0.00000
   1978.    5.056  2.31E-07  9.03E-05  3.04E-27  1.19E-24  0.00E+00  0.00E+00  2.31E-07  9.03E-05       NaN  0.00000
   1980.    5.051  2.43E-07  9.53E-05  4.74E-27  1.86E-24  0.00E+00  0.00E+00  2.43E-07  9.53E-05       NaN  0.00000
   1982.    5.045  2.33E-07  9.13E-05  2.01E-27  7.88E-25  0.00E+00  0.00E+00  2.33E-07  9.13E-05       NaN  0.00000
   1984.    5.040  2.24E-07  8.84E-05  5.79E-28  2.28E-25  0.00E+00  0.00E+00  2.24E-07  8.84E-05       NaN  0.00000
   1986.    5.035  1.80E-07  7.10E-05  2.41E-29  9.51E-27  0.00E+00  0.00E+00  1.80E-07  7.10E-05       NaN  0.00000
   1988.    5.030  1.21E-07  4.79E-05  9.41E-34  3.72E-31  0.00E+00  0.00E+00  1.21E-07  4.79E-05       NaN  0.00000
   1990.    5.025  1.07E-07  4.25E-05  3.01E-34  1.19E-31  0.00E+00  0.00E+00  1.07E-07  4.25E-05       NaN  0.00000
   1992.    5.020  8.27E-08  3.28E-05  0.00E+00  0.00E+00  0.00E+00  0.00E+00  8.27E-08  3.28E-05       NaN  0.00000
   1994.    5.015  1.32E-07  5.25E-05  2.59E-31  1.03E-28  0.00E+00  0.00E+00  1.32E-07  5.25E-05       NaN  0.00000
   1996.    5.010  1.91E-07  7.60E-05  1.18E-29  4.70E-27  0.00E+00  0.00E+00  1.91E-07  7.60E-05       NaN  0.00000
   1998.    5.005  1.63E-07  6.49E-05  2.57E-27  1.03E-24  0.00E+00  0.00E+00  1.63E-07  6.49E-05       NaN  0.00000
   2000.    5.000  1.80E-07  7.20E-05  4.55E-24  1.82E-21  0.00E+00  0.00E+00  1.80E-07  7.20E-05       NaN  0.00000
  iv         2005
1                                             RADIANCE(WATTS/CM2-STER-XXX)
0  FREQ   WAVLEN    PATH THERMAL      SURFACE EMISSION    SURFACE REFLECTED     TOTAL RADIANCE   INTEGRAL    TOTAL
  (CM-1) (MICRN)    (CM-1)   (MICRN)    (CM-1)   (MICRN)    (CM-1)   (MICRN)    (CM-1)   (MICRN)    (CM-1)   TRANS

   2002.    4.995  2.34E-07  9.38E-05  3.61E-23  1.45E-20  0.00E+00  0.00E+00  2.34E-07  9.38E-05       NaN  0.00000
   2004.    4.990  2.41E-07  9.67E-05  7.87E-23  3.16E-20  0.00E+00  0.00E+00  2.41E-07  9.67E-05       NaN  0.00000
   2006.    4.985  2.06E-07  8.28E-05  3.73E-23  1.50E-20  0.00E+00  0.00E+00  2.06E-07  8.28E-05       NaN  0.00000
   2008.    4.980  1.53E-07  6.18E-05  4.00E-25  1.61E-22  0.00E+00  0.00E+00  1.53E-07  6.18E-05       NaN  0.00000
   2010.    4.975  1.83E-07  7.38E-05  1.89E-23  7.65E-21  0.00E+00  0.00E+00  1.83E-07  7.38E-05       NaN  0.00000
   2012.    4.970  2.23E-07  9.02E-05  4.70E-23  1.90E-20  0.00E+00  0.00E+00  2.23E-07  9.02E-05       NaN  0.00000
   2014.    4.965  1.97E-07  7.98E-05  1.70E-23  6.88E-21  0.00E+00  0.00E+00  1.97E-07  7.98E-05       NaN  0.00000
   2016.    4.960  1.18E-07  4.81E-05  1.17E-26  4.77E-24  0.00E+00  0.00E+00  1.18E-07  4.81E-05       NaN  0.00000
   2018.    4.955  8.63E-08  3.52E-05  1.46E-37  5.94E-35  0.00E+00  0.00E+00  8.63E-08  3.52E-05       NaN  0.00000
   2020.    4.950  1.41E-07  5.74E-05  1.17E-26  4.79E-24  0.00E+00  0.00E+00  1.41E-07  5.74E-05       NaN  0.00000
   2022.    4.946  1.74E-07  7.12E-05  2.36E-23  9.64E-21  0.00E+00  0.00E+00  1.74E-07  7.12E-05       NaN  0.00000
   2024.    4.941  1.79E-07  7.32E-05  1.92E-22  7.87E-20  0.00E+00  0.00E+00  1.79E-07  7.32E-05       NaN  0.00000
   2026.    4.936  1.74E-07  7.15E-05  1.81E-22  7.41E-20  0.00E+00  0.00E+00  1.74E-07  7.15E-05       NaN  0.00000
   2028.    4.931  1.90E-07  7.82E-05  5.88E-19  2.42E-16  0.00E+00  0.00E+00  1.90E-07  7.82E-05       NaN  0.00000
   2030.    4.926  2.40E-07  9.89E-05  6.72E-18  2.77E-15  0.00E+00  0.00E+00  2.40E-07  9.89E-05       NaN  0.00000
   2032.    4.921  2.43E-07  1.00E-04  1.24E-17  5.10E-15  0.00E+00  0.00E+00  2.43E-07  1.00E-04       NaN  0.00000
   2034.    4.916  2.20E-07  9.12E-05  5.67E-18  2.34E-15  0.00E+00  0.00E+00  2.20E-07  9.12E-05       NaN  0.00000
   2036.    4.912  2.16E-07  8.95E-05  2.46E-18  1.02E-15  0.00E+00  0.00E+00  2.16E-07  8.95E-05       NaN  0.00000
   2038.    4.907  1.91E-07  7.93E-05  8.13E-19  3.38E-16  0.00E+00  0.00E+00  1.91E-07  7.93E-05       NaN  0.00000
   2040.    4.902  1.49E-07  6.20E-05  3.91E-21  1.63E-18  0.00E+00  0.00E+00  1.49E-07  6.20E-05       NaN  0.00000
   2042.    4.897  1.17E-07  4.88E-05  7.75E-22  3.23E-19  0.00E+00  0.00E+00  1.17E-07  4.88E-05       NaN  0.00000
   2044.    4.892  1.52E-07  6.36E-05  1.59E-20  6.66E-18  0.00E+00  0.00E+00  1.52E-07  6.36E-05       NaN  0.00000
   2046.    4.888  1.89E-07  7.93E-05  1.09E-17  4.56E-15  0.00E+00  0.00E+00  1.89E-07  7.93E-05       NaN  0.00000
   2048.    4.883  2.19E-07  9.17E-05  3.04E-16  1.28E-13  0.00E+00  0.00E+00  2.19E-07  9.17E-05       NaN  0.00000
   2050.    4.878  2.44E-07  1.03E-04  9.98E-16  4.19E-13  0.00E+00  0.00E+00  2.44E-07  1.03E-04       NaN  0.00000
   2052.    4.873  2.42E-07  1.02E-04  1.58E-15  6.64E-13  0.00E+00  0.00E+00  2.42E-07  1.02E-04       NaN  0.00000
   2054.    4.869  2.39E-07  1.01E-04  3.01E-15  1.27E-12  0.00E+00  0.00E+00  2.39E-07  1.01E-04       NaN  0.00000
   2056.    4.864  2.48E-07  1.05E-04  6.04E-15  2.55E-12  0.00E+00  0.00E+00  2.48E-07  1.05E-04       NaN  0.00000
   2058.    4.859  2.22E-07  9.42E-05  3.36E-15  1.42E-12  0.00E+00  0.00E+00  2.22E-07  9.42E-05       NaN  0.00000
   2060.    4.854  1.66E-07  7.06E-05  2.57E-16  1.09E-13  0.00E+00  0.00E+00  1.66E-07  7.06E-05       NaN  0.00000
   2062.    4.850  1.76E-07  7.47E-05  1.15E-17  4.89E-15  0.00E+00  0.00E+00  1.76E-07  7.47E-05       NaN  0.00000
   2064.    4.845  1.34E-07  5.70E-05  3.17E-18  1.35E-15  0.00E+00  0.00E+00  1.34E-07  5.70E-05       NaN  0.00000
   2066.    4.840  1.26E-07  5.36E-05  3.29E-17  1.40E-14  0.00E+00  0.00E+00  1.26E-07  5.36E-05       NaN  0.00000
   2068.    4.836  2.04E-07  8.74E-05  5.87E-15  2.51E-12  0.00E+00  0.00E+00  2.04E-07  8.74E-05       NaN  0.00000
   2070.    4.831  2.37E-07  1.02E-04  2.58E-14  1.11E-11  0.00E+00  0.00E+00  2.37E-07  1.02E-04       NaN  0.00000
   2072.    4.826  2.08E-07  8.92E-05  1.73E-14  7.44E-12  0.00E+00  0.00E+00  2.08E-07  8.92E-05       NaN  0.00000
   2074.    4.822  1.75E-07  7.52E-05  4.29E-15  1.85E-12  0.00E+00  0.00E+00  1.75E-07  7.52E-05       NaN  0.00000
   2076.    4.817  2.08E-07  8.95E-05  1.70E-14  7.32E-12  0.00E+00  0.00E+00  2.08E-07  8.95E-05       NaN  0.00000
   2078.    4.812  2.01E-07  8.67E-05  1.29E-14  5.57E-12  0.00E+00  0.00E+00  2.01E-07  8.67E-05       NaN  0.00000
   2080.    4.808  1.97E-07  8.54E-05  1.12E-14  4.86E-12  0.00E+00  0.00E+00  1.97E-07  8.54E-05       NaN  0.00000
   2082.    4.803  2.09E-07  9.05E-05  1.04E-13  4.51E-11  0.00E+00  0.00E+00  2.09E-07  9.05E-05       NaN  0.00000
   2084.    4.798  2.27E-07  9.85E-05  2.10E-13  9.14E-11  0.00E+00  0.00E+00  2.27E-07  9.85E-05       NaN  0.00000
   2086.    4.794  2.00E-07  8.72E-05  7.37E-14  3.20E-11  0.00E+00  0.00E+00  2.00E-07  8.72E-05       NaN  0.00000
   2088.    4.789  1.61E-07  7.04E-05  2.49E-15  1.09E-12  0.00E+00  0.00E+00  1.61E-07  7.04E-05       NaN  0.00000
   2090.    4.785  1.37E-07  5.97E-05  4.46E-16  1.95E-13  0.00E+00  0.00E+00  1.37E-07  5.97E-05       NaN  0.00000
   2092.    4.780  1.74E-07  7.62E-05  3.19E-14  1.40E-11  0.00E+00  0.00E+00  1.74E-07  7.62E-05       NaN  0.00000
   2094.    4.776  2.09E-07  9.17E-05  1.64E-13  7.17E-11  0.00E+00  0.00E+00  2.09E-07  9.17E-05       NaN  0.00000
   2096.    4.771  2.03E-07  8.93E-05  2.85E-13  1.25E-10  0.00E+00  0.00E+00  2.03E-07  8.93E-05       NaN  0.00000
   2098.    4.766  1.99E-07  8.74E-05  3.63E-13  1.60E-10  0.00E+00  0.00E+00  1.99E-07  8.74E-05       NaN  0.00000
   2100.    4.762  1.97E-07  8.69E-05  1.01E-12  4.46E-10  0.00E+00  0.00E+00  1.97E-07  8.69E-05       NaN  0.00000
  iv         2105
1                                             RADIANCE(WATTS/CM2-STER-XXX)
0  FREQ   WAVLEN    PATH THERMAL      SURFACE EMISSION    SURFACE REFLECTED     TOTAL RADIANCE   INTEGRAL    TOTAL
  (CM-1) (MICRN)    (CM-1)   (MICRN)    (CM-1)   (MICRN)    (CM-1)   (MICRN)    (CM-1)   (MICRN)    (CM-1)   TRANS

   2102.    4.757  2.19E-07  9.69E-05  3.58E-12  1.58E-09  0.00E+00  0.00E+00  2.19E-07  9.69E-05       NaN  0.00001
   2104.    4.753  2.21E-07  9.77E-05  4.38E-12  1.94E-09  0.00E+00  0.00E+00  2.21E-07  9.77E-05       NaN  0.00001
   2106.    4.748  1.90E-07  8.42E-05  1.74E-12  7.72E-10  0.00E+00  0.00E+00  1.90E-07  8.42E-05       NaN  0.00000
   2108.    4.744  2.02E-07  8.96E-05  3.47E-12  1.54E-09  0.00E+00  0.00E+00  2.02E-07  8.96E-05       NaN  0.00001
   2110.    4.739  2.27E-07  1.01E-04  9.18E-12  4.09E-09  0.00E+00  0.00E+00  2.27E-07  1.01E-04       NaN  0.00002
   2112.    4.735  2.16E-07  9.65E-05  6.95E-12  3.10E-09  0.00E+00  0.00E+00  2.16E-07  9.65E-05       NaN  0.00002
   2114.    4.730  1.53E-07  6.84E-05  1.27E-12  5.69E-10  0.00E+00  0.00E+00  1.53E-07  6.84E-05       NaN  0.00000
   2116.    4.726  1.57E-07  7.03E-05  2.75E-12  1.23E-09  0.00E+00  0.00E+00  1.57E-07  7.03E-05       NaN  0.00001
   2118.    4.721  2.17E-07  9.72E-05  1.33E-11  5.96E-09  0.00E+00  0.00E+00  2.17E-07  9.72E-05       NaN  0.00003
   2120.    4.717  2.10E-07  9.45E-05  1.54E-11  6.92E-09  0.00E+00  0.00E+00  2.10E-07  9.45E-05       NaN  0.00004
   2122.    4.713  1.87E-07  8.44E-05  4.72E-12  2.12E-09  0.00E+00  0.00E+00  1.87E-07  8.44E-05       NaN  0.00001
   2124.    4.708  1.78E-07  8.05E-05  4.60E-12  2.07E-09  0.00E+00  0.00E+00  1.78E-07  8.05E-05       NaN  0.00001
   2126.    4.704  2.03E-07  9.15E-05  3.11E-11  1.40E-08  0.00E+00  0.00E+00  2.03E-07  9.16E-05       NaN  0.00008
   2128.    4.699  2.26E-07  1.02E-04  5.59E-11  2.53E-08  0.00E+00  0.00E+00  2.26E-07  1.02E-04       NaN  0.00014
   2130.    4.695  2.22E-07  1.01E-04  5.76E-11  2.61E-08  0.00E+00  0.00E+00  2.22E-07  1.01E-04       NaN  0.00014
   2132.    4.690  2.21E-07  1.01E-04  6.59E-11  3.00E-08  0.00E+00  0.00E+00  2.21E-07  1.01E-04       NaN  0.00016
   2134.    4.686  2.07E-07  9.45E-05  5.06E-11  2.30E-08  0.00E+00  0.00E+00  2.08E-07  9.45E-05       NaN  0.00013
   2136.    4.682  1.46E-07  6.66E-05  9.87E-12  4.50E-09  0.00E+00  0.00E+00  1.46E-07  6.66E-05       NaN  0.00002
   2138.    4.677  1.27E-07  5.79E-05  1.36E-14  6.24E-12  0.00E+00  0.00E+00  1.27E-07  5.79E-05       NaN  0.00000
   2140.    4.673  1.68E-07  7.67E-05  1.66E-11  7.60E-09  0.00E+00  0.00E+00  1.68E-07  7.67E-05       NaN  0.00004
   2142.    4.669  2.03E-07  9.30E-05  4.94E-11  2.27E-08  0.00E+00  0.00E+00  2.03E-07  9.30E-05       NaN  0.00013
   2144.    4.664  1.85E-07  8.52E-05  3.88E-11  1.79E-08  0.00E+00  0.00E+00  1.85E-07  8.53E-05       NaN  0.00010
   2146.    4.660  1.59E-07  7.32E-05  6.17E-12  2.84E-09  0.00E+00  0.00E+00  1.59E-07  7.32E-05       NaN  0.00002
   2148.    4.655  1.76E-07  8.14E-05  3.74E-11  1.72E-08  0.00E+00  0.00E+00  1.77E-07  8.14E-05       NaN  0.00010
   2150.    4.651  1.98E-07  9.17E-05  9.75E-11  4.51E-08  0.00E+00  0.00E+00  1.98E-07  9.17E-05       NaN  0.00026
   2152.    4.647  1.84E-07  8.52E-05  5.66E-11  2.62E-08  0.00E+00  0.00E+00  1.84E-07  8.52E-05       NaN  0.00015
   2154.    4.643  1.84E-07  8.54E-05  6.33E-11  2.94E-08  0.00E+00  0.00E+00  1.84E-07  8.55E-05       NaN  0.00017
   2156.    4.638  1.88E-07  8.75E-05  8.62E-11  4.01E-08  0.00E+00  0.00E+00  1.88E-07  8.75E-05       NaN  0.00023
   2158.    4.634  1.94E-07  9.03E-05  1.79E-10  8.35E-08  0.00E+00  0.00E+00  1.94E-07  9.04E-05       NaN  0.00049
   2160.    4.630  1.86E-07  8.68E-05  1.42E-10  6.63E-08  0.00E+00  0.00E+00  1.86E-07  8.69E-05       NaN  0.00039
   2162.    4.625  1.54E-07  7.18E-05  2.78E-11  1.30E-08  0.00E+00  0.00E+00  1.54E-07  7.18E-05       NaN  0.00008
   2164.    4.621  1.79E-07  8.40E-05  1.68E-10  7.85E-08  0.00E+00  0.00E+00  1.80E-07  8.41E-05       NaN  0.00047
   2166.    4.617  2.02E-07  9.46E-05  3.75E-10  1.76E-07  0.00E+00  0.00E+00  2.02E-07  9.48E-05       NaN  0.00105
   2168.    4.613  2.04E-07  9.61E-05  5.78E-10  2.72E-07  0.00E+00  0.00E+00  2.05E-07  9.64E-05       NaN  0.00162
   2170.    4.608  1.91E-07  9.01E-05  5.31E-10  2.50E-07  0.00E+00  0.00E+00  1.92E-07  9.03E-05       NaN  0.00150
   2172.    4.604  1.82E-07  8.57E-05  3.82E-10  1.80E-07  0.00E+00  0.00E+00  1.82E-07  8.59E-05       NaN  0.00109
   2174.    4.600  1.97E-07  9.29E-05  6.54E-10  3.09E-07  0.00E+00  0.00E+00  1.97E-07  9.32E-05       NaN  0.00188
   2176.    4.596  2.00E-07  9.48E-05  8.63E-10  4.09E-07  0.00E+00  0.00E+00  2.01E-07  9.52E-05       NaN  0.00249
   2178.    4.591  1.99E-07  9.46E-05  8.96E-10  4.25E-07  0.00E+00  0.00E+00  2.00E-07  9.50E-05       NaN  0.00260
   2180.    4.587  1.83E-07  8.69E-05  5.61E-10  2.67E-07  0.00E+00  0.00E+00  1.83E-07  8.72E-05       NaN  0.00164
   2182.    4.583  1.82E-07  8.69E-05  5.63E-10  2.68E-07  0.00E+00  0.00E+00  1.83E-07  8.71E-05       NaN  0.00166
   2184.    4.579  1.83E-07  8.75E-05  6.46E-10  3.08E-07  0.00E+00  0.00E+00  1.84E-07  8.78E-05       NaN  0.00191
   2186.    4.575  1.63E-07  7.79E-05  2.25E-10  1.07E-07  0.00E+00  0.00E+00  1.63E-07  7.80E-05       NaN  0.00067
   2188.    4.570  1.69E-07  8.09E-05  3.95E-10  1.89E-07  0.00E+00  0.00E+00  1.69E-07  8.11E-05       NaN  0.00119
   2190.    4.566  1.85E-07  8.87E-05  8.50E-10  4.08E-07  0.00E+00  0.00E+00  1.86E-07  8.92E-05       NaN  0.00258
   2192.    4.562  1.82E-07  8.74E-05  9.07E-10  4.36E-07  0.00E+00  0.00E+00  1.83E-07  8.78E-05       NaN  0.00277
   2194.    4.558  1.79E-07  8.64E-05  1.09E-09  5.26E-07  0.00E+00  0.00E+00  1.80E-07  8.69E-05       NaN  0.00336
   2196.    4.554  1.90E-07  9.15E-05  1.84E-09  8.90E-07  0.00E+00  0.00E+00  1.92E-07  9.24E-05       NaN  0.00571
   2198.    4.550  1.80E-07  8.70E-05  1.38E-09  6.66E-07  0.00E+00  0.00E+00  1.82E-07  8.77E-05       NaN  0.00429
   2200.    4.545  1.69E-07  8.18E-05  9.74E-10  4.71E-07  0.00E+00  0.00E+00  1.70E-07  8.23E-05       NaN  0.00306
0INTEGRATED ABSORPTION FROM    2 TO 2200 CM-1 =       NaN CM-1
 AVERAGE TRANSMITTANCE =   NaN

0INTEGRATED RADIANCE =        NaN WATTS CM-2 STER-1
 MINIMUM RADIANCE    =  3.706E-09 WATTS CM-2 STER-1 (CM-1)-1 AT        4.0 CM-1
 MAXIMUM RADIANCE    =  9.653E-06 WATTS CM-2 STER-1 (CM-1)-1 AT      608.0 CM-1
 BOUNDARY TEMPERATURE =     299.70 K
 BOUNDARY EMISSIVITY =       0.971
0 CARD 5 *****    0